[
    {
        "rt":null,"stimulus":"<div style=\"padding-left: 100px;padding-right: 100px\"> \n  <p> Ci risulta che lo zoom di questa pagina sia <font style=\"color:red;\">100% </font> </p> \n  È necessario impostare lo zoom a <font style=\"color:green;\">100%</font> per procedere con l'esperimento <br>\n  Premi su \"Fatto\" in basso non appena avrai impostato lo zoom della pagina a 100%.\n  <br>\n\n  <p style=\"background-color:gray;\">Current Zoom Level: <span class=\"output\"> </span>  </p>\n\n  Ciò ti consentirà di ricominciare con le giuste impostazioni. Grazie!\n  <br></br>\n  <p><input type=\"button\" value=\"Fatto\" onClick=\"refresh(this)\" class=\"largerCheckbox1\" style=\"font-weight: bold;\"></p>\n  <br></br>\n  <p style = \"text-align: left\">\n  Per aumentare lo zoom premi <b>ctrl +</b> sulla tastiera <br>\n  Per ridurre lo zoom premi <b>ctrl -</b> sulla tastiera <br>\n  </p>\n  </div>","key_press":null,"trial_type":"html-keyboard-response","trial_index":0,"time_elapsed":2,"internal_node_id":"0.0-0.0","browser_name":"Chrome","browser_type":"88.0","subject":"w906pm7","interaction":"[{\"event\":\"fullscreenenter\",\"trial\":3,\"time\":12037}]","windowWidth":1536,"windowHight":864},{"rt":9338,"preamble":"<div>Grazie per la partecipazione al nostro esperimento! <br> Ti chiediamo di rispondere a queste due domande per iniziare lo studio. </div>","superq":"demografiche","rawResponses":{"Q0":{"text":"Qual è il tuo genere?","options":["Maschio","Femmina","Preferisco non rispondere"],"allowMultipleSelections":false,"required":true,"placeholder":"Seleziona il tuo Genere:"},"A0":"Maschio","Q1":{"text":"Quanti anni hai?","options":[1,2,3,4,5,6,7,8,9,10,11,12,13,14,15,16,17,18,19,20,21,22,23,24,25,26,27,28,29,30,31,32,33,34,35,36,37,38,39,40,41,42,43,44,45,46,47,48,49,50,51,52,53,54,55,56,57,58,59,60,61,62,63,64,65,66,67,68,69,70,71,72,73,74,75,76,77,78,79,80,81,82,83,84,85,86,87,88,89],"allowMultipleSelections":false,"required":true,"placeholder":"Seleziona la tua Età"},"A1":25},"responses":"{\"Q0\":{\"text\":\"Qual è il tuo genere?\",\"options\":[\"Maschio\",\"Femmina\",\"Preferisco non rispondere\"],\"allowMultipleSelections\":false,\"required\":true,\"placeholder\":\"Seleziona il tuo Genere:\"},\"A0\":\"Maschio\",\"Q1\":{\"text\":\"Quanti anni hai?\",\"options\":[1,2,3,4,5,6,7,8,9,10,11,12,13,14,15,16,17,18,19,20,21,22,23,24,25,26,27,28,29,30,31,32,33,34,35,36,37,38,39,40,41,42,43,44,45,46,47,48,49,50,51,52,53,54,55,56,57,58,59,60,61,62,63,64,65,66,67,68,69,70,71,72,73,74,75,76,77,78,79,80,81,82,83,84,85,86,87,88,89],\"allowMultipleSelections\":false,\"required\":true,\"placeholder\":\"Seleziona la tua Età\"},\"A1\":25}","trial_type":"dropdown","trial_index":1,"time_elapsed":9342,"internal_node_id":"0.0-1.0","browser_name":"Chrome","browser_type":"88.0","subject":"w906pm7","interaction":"[{\"event\":\"fullscreenenter\",\"trial\":3,\"time\":12037}]","windowWidth":1536,"windowHight":864},{"rt":1669.3750000558794,"survey_responses":"{\"Q0\":\"\"}","trial_type":"survey-text","trial_index":2,"time_elapsed":11017,"internal_node_id":"0.0-2.0","browser_name":"Chrome","browser_type":"88.0","subject":"w906pm7","interaction":"[{\"event\":\"fullscreenenter\",\"trial\":3,\"time\":12037}]","windowWidth":1536,"windowHight":864},{"success":true,"trial_type":"fullscreen","trial_index":3,"time_elapsed":13023,"internal_node_id":"0.0-3.0","browser_name":"Chrome","browser_type":"88.0","subject":"w906pm7","interaction":"[{\"event\":\"fullscreenenter\",\"trial\":3,\"time\":12037}]","windowWidth":1536,"windowHight":864},{"rt":761.534999939613,"stimulus":"\n  <div>\n  Stai per svolgere un compito di decisione percettiva.\n  <br><br/>\n  Le tue alternative saranno due <i>nuvole di punti in movimento.</i>\n  <br><br><br/>\n  <font style=\"font-size:110%;\"> Per vedere un esempio, premi la <b>BARRA SPAZIATRICE<b> </font>\n  </div>","key_press":32,"trial_type":"html-keyboard-response","trial_index":4,"time_elapsed":13786,"internal_node_id":"0.0-4.0","browser_name":"Chrome","browser_type":"88.0","subject":"w906pm7","interaction":"[{\"event\":\"fullscreenenter\",\"trial\":3,\"time\":12037}]","windowWidth":1536,"windowHight":864},{"rt":-1,"key_press":-1,"choices":[],"trial_duration":1500,"response_ends_trial":true,"number_of_apertures":2,"number_of_dots":[100,200],"number_of_sets":1,"coherent_direction":90,"coherence":[0.8,0.5],"opposite_coherence":0,"dot_radius":5,"dot_life":-1,"move_distance":0.5,"aperture_width":300,"aperture_height":300,"dot_color":"white","background_color":"black","RDK_type":3,"aperture_type":2,"reinsert_type":2,"frame_rate":16.50538888837521,"frame_rate_array":"[10.239999974146485,9.405000018887222,17.2249999595806,17.16000004671514,17.020000028423965,16.40999992378056,16.260000062175095,16.549999942071736,16.44000003580004,16.790000023320317,17.97499996609986,15.574999968521297,16.844999976456165,15.915000112727284,16.07999997213483,16.564999939873815,16.905000084079802,16.650000005029142,16.914999927394092,16.285000019706786,16.715000034309924,16.644999966956675,16.6800000006333,17.405000049620867,16.559999901801348,15.775000094436109,17.47999992221594,15.850000083446503,17.069999943487346,17.194999963976443,16.860000090673566,16.27999998163432,15.774999978020787,16.779999947175384,16.57500001601875,17.61500001884997,16.8550000526011,15.789999975822866,16.629999969154596,16.580000054091215,16.734999953769147,16.6800000006333,16.590000013820827,16.854999936185777,16.724999994039536,16.10500004608184,16.805000021122396,17.08000001963228,16.3450000109151,16.734999953769147,16.56000001821667,16.949999961070716,16.365000046789646,16.46499999333173,16.685000038705766,16.969999996945262,16.405000002123415,17.20999996177852,16.234999988228083,16.46499999333173,17.594999982975423,15.759999980218709,17.110000015236437,16.44999999552965,16.690000076778233,16.259999945759773,16.734999953769147,17.155000008642673,16.245000064373016,17.149999970570207,16.32000005338341,16.814999980852008,17.110000015236437,16.299999901093543,16.330000013113022,16.940000001341105,16.65500004310161,16.565000056289136,16.84999989811331,16.670000040903687,16.24999998603016,16.765000065788627,16.910000005736947,16.14500000141561,16.869999933987856,16.6800000006333,17.510000034235418,16.70499995816499,15.935000032186508,16.71999995596707]","number_of_frames":90,"aperture_center_x":[384,1152],"aperture_center_y":377,"fixation_cross":false,"fixation_cross_width":20,"fixation_cross_height":20,"fixation_cross_color":"black","fixation_cross_thickness":1,"border":false,"border_thickness":1,"border_color":1,"canvas_width":1536,"canvas_height":864,"trial_type":"rdk","trial_index":5,"time_elapsed":15293,"internal_node_id":"0.0-5.0","browser_name":"Chrome","browser_type":"88.0","subject":"w906pm7","interaction":"[{\"event\":\"fullscreenenter\",\"trial\":3,\"time\":12037}]","windowWidth":1536,"windowHight":864},{"rt":1037.6250001136214,"stimulus":"<div>\n          Come avrai notato, i punti sono in movimento.\n          <br>\n          <p style=\"text-align: left;\">\n          I punti che si muovono verso l'alto valgono <strong>1</strong>\n          &nbsp;&nbsp;&nbsp;&nbsp;&nbsp;&nbsp;&nbsp;&nbsp;&nbsp;&nbsp;&nbsp;&nbsp;&nbsp;&nbsp;&nbsp;\n          &nbsp;&nbsp;&nbsp;&nbsp;&nbsp;&nbsp;&nbsp;&nbsp;&nbsp;&nbsp;&nbsp;&nbsp;&nbsp;&nbsp;&nbsp;\n          &nbsp;&nbsp;&nbsp;\n          <img class=\"moveimage1\" width=\"5%\" style=margin-Top:18px src=\"../img/img0.png\"> = 1\n          <br>\n          I punti che si muovono verso qualsiasi altra direzione valgono <strong>0</strong> \n          &nbsp;&nbsp;&nbsp;&nbsp;&nbsp;&nbsp;\n          <img class=\"moveimage2\" width=\"5%\" src=\"../img/img1.png\"> = 0\n          <br></br><br/>\n          Il valore della 'nuvola' è dato dalla somma del valore dei punti che la compongono\n          <br></p>\n          Esempio: <br>\n          <img width=\"45%\" src=\"../img/img2.png\">\n          <br></br>\n          <font style=\"font-size:100%;\"> Premi la <b>BARRA SPAZIATRICE<b> per andare avanti </font>\n          </div>","key_press":32,"trial_type":"html-keyboard-response","trial_index":6,"time_elapsed":16332,"internal_node_id":"0.0-6.0-0.0","browser_name":"Chrome","browser_type":"88.0","subject":"w906pm7","interaction":"[{\"event\":\"fullscreenenter\",\"trial\":3,\"time\":12037}]","windowWidth":1536,"windowHight":864},{"rt":626.1549999471754,"stimulus":"<div style=\"padding-left: 100px;padding-right: 100px;\">            \n          <strong style=\"color:#b10508; font-size:110%\" > Obiettivo </strong>\n          <br>\n          Indicare la nuvola di punti con il valore maggiore\n          <br><br/>\n          <strong style=\"color:#b10508; font-size:110%\"> Tasti </strong>\n          <br>\n          Se ritieni che l'opzione di sinistra sia quella con il valore maggiore, selezionala usando la <b>freccetta sinistra<b> della tua tastiera \n          <img width=\"5%\" src=\"../img/img3.png\"> \n          <br>\n          Se invece ritieni che l'opzione di destra sia quella con il valore maggiore, selezionala usando la <b>freccetta destra<b> della tua tastiera \n          <img width=\"5%\" src=\"../img/img4.png\">\n          <br><br/>\n          <strong style=\"color:#b10508; font-size:110%\"> Nota </strong>\n          <br>\n          Ti sconsigliamo di contare i punti ad uno ad uno per determinare il valore della nuvola.\n          <br>\n          <b>Avrai massimo 5 secondi per rispondere!<b>\n          <br><br><br/>\n          <font style=\"font-size:110%;\"> Premi la <b>BARRA SPAZIATRICE<b> per iniziare la prova! </font>\n          </div>","key_press":32,"trial_type":"html-keyboard-response","trial_index":7,"time_elapsed":16960,"internal_node_id":"0.0-6.0-1.0","browser_name":"Chrome","browser_type":"88.0","subject":"w906pm7","interaction":"[{\"event\":\"fullscreenenter\",\"trial\":3,\"time\":12037}]","windowWidth":1536,"windowHight":864},{"rt":null,"stimulus":"+","key_press":null,"trial_part":"fixation","trial_type":"html-keyboard-response","trial_index":8,"time_elapsed":17476,"internal_node_id":"0.0-6.0-2.0-0.0","browser_name":"Chrome","browser_type":"88.0","subject":"w906pm7","interaction":"[{\"event\":\"fullscreenenter\",\"trial\":3,\"time\":12037}]","windowWidth":1536,"windowHight":864},{"rt":1248.410000000149,"key_press":39,"correct":true,"choices":[37,39],"correct_choice":39,"trial_duration":5000,"response_ends_trial":true,"number_of_apertures":2,"number_of_dots":[200,200],"number_of_sets":1,"coherent_direction":90,"coherence":[0.5,1],"opposite_coherence":0,"dot_radius":5,"dot_life":-1,"move_distance":0.5,"aperture_width":300,"aperture_height":300,"dot_color":"white","background_color":"black","RDK_type":3,"aperture_type":2,"reinsert_type":2,"frame_rate":16.527199999739725,"frame_rate_array":"[11.990000028163195,14.035000000149012,14.884999953210354,16.285000019706786,16.899999929592013,16.405000002123415,16.550000058487058,17.98499992582947,17.36000005621463,14.594999956898391,16.32000005338341,16.564999939873815,16.3450000109151,16.99999999254942,16.650000005029142,16.210000030696392,17.04000006429851,16.874999972060323,16.019999980926514,17.244999995455146,16.459999955259264,16.539999982342124,16.905000084079802,16.779999947175384,16.210000030696392,17.17500004451722,16.60999993328005,16.294999979436398,16.910000005736947,16.54500002041459,16.290000057779253,17.14499993249774,16.56000001821667,16.365000046789646,17.034999909810722,16.82500005699694,16.27999998163432,17.370000015944242,16.309999977238476,16.434999997727573,16.765000065788627,16.940000001341105,15.919999917969108,17.155000008642673,16.700000036507845,16.26499998383224,17.110000015236437,16.779999947175384,16.245000064373016,16.730000032112002,17.52999995369464,15.965000027790666,16.46499999333173,16.54500002041459,16.92999992519617,16.590000013820827,16.82500005699694,16.20999991428107,17.05500006210059,16.629999969154596,16.330000013113022,17.18500000424683,16.44999999552965,16.330000013113022,16.914999927394092,16.595000051893294,16.090000048279762,17.4000000115484,16.59999997355044,16.429999959655106,16.694999998435378,17.050000024028122,16.419999999925494,16.869999933987856,16.5200000628829]","number_of_frames":75,"aperture_center_x":[384,1152],"aperture_center_y":[377,377],"fixation_cross":false,"fixation_cross_width":20,"fixation_cross_height":20,"fixation_cross_color":"black","fixation_cross_thickness":1,"border":false,"border_thickness":1,"border_color":1,"canvas_width":1536,"canvas_height":864,"trial_part":"probe","trial_type":"rdk","trial_index":9,"time_elapsed":18727,"internal_node_id":"0.0-6.0-2.0-1.0","browser_name":"Chrome","browser_type":"88.0","subject":"w906pm7","interaction":"[{\"event\":\"fullscreenenter\",\"trial\":3,\"time\":12037}]","windowWidth":1536,"windowHight":864},{"rt":null,"stimulus":"<p style='color:Green; font-size:150%;'>Corretto</p>","key_press":null,"trial_type":"html-keyboard-response","trial_index":10,"time_elapsed":19238,"internal_node_id":"0.0-6.0-2.0-2.0","browser_name":"Chrome","browser_type":"88.0","subject":"w906pm7","interaction":"[{\"event\":\"fullscreenenter\",\"trial\":3,\"time\":12037}]","windowWidth":1536,"windowHight":864},{"rt":null,"stimulus":"+","key_press":null,"trial_part":"fixation","trial_type":"html-keyboard-response","trial_index":11,"time_elapsed":19742,"internal_node_id":"0.0-6.0-2.0-0.1","browser_name":"Chrome","browser_type":"88.0","subject":"w906pm7","interaction":"[{\"event\":\"fullscreenenter\",\"trial\":3,\"time\":12037}]","windowWidth":1536,"windowHight":864},{"rt":1250.7599999662489,"key_press":39,"correct":true,"choices":[37,39],"correct_choice":39,"trial_duration":5000,"response_ends_trial":true,"number_of_apertures":2,"number_of_dots":[200,100],"number_of_sets":1,"coherent_direction":90,"coherence":[0.25,1],"opposite_coherence":0,"dot_radius":5,"dot_life":-1,"move_distance":0.5,"aperture_width":300,"aperture_height":300,"dot_color":"white","background_color":"black","RDK_type":3,"aperture_type":2,"reinsert_type":2,"frame_rate":16.550266666648287,"frame_rate_array":"[8.470000000670552,16.660000081174076,16.68999996036291,16.56999997794628,16.915000043809414,16.5049999486655,17.035000026226044,16.350000048987567,16.734999953769147,16.564999939873815,16.80000009946525,16.559999901801348,16.57500001601875,16.605000011622906,16.54500002041459,16.76000002771616,16.68999996036291,16.88000001013279,16.30500005558133,16.90499996766448,16.434999997727573,16.859999974258244,16.65500004310161,16.459999955259264,16.749999951571226,16.850000014528632,16.460000071674585,16.654999926686287,16.73500007018447,16.56000001821667,16.70499995816499,16.749999951571226,16.6800000006333,16.485000029206276,16.780000063590705,16.684999922290444,16.645000083371997,16.724999994039536,16.579999937675893,16.750000067986548,16.63499989081174,16.550000058487058,16.64000004529953,16.694999998435378,16.589999897405505,16.885000048205256,16.580000054091215,16.62499993108213,16.530000022612512,16.74500002991408,16.884999931789935,16.40000008046627,16.86500001233071,16.51999994646758,17.525000032037497,15.709999948740005,17.134999972768128,16.180000035092235,16.925000003539026,16.685000038705766,16.434999997727573,16.80999994277954,16.590000013820827,16.659999964758754,16.645000083371997,16.639999928884208,16.694999998435378,16.730000032112002,16.820000018924475,16.434999997727573,16.614999971352518,16.59999997355044,16.709999996237457,16.755000106059015,16.499999910593033]","number_of_frames":75,"aperture_center_x":[384,1152],"aperture_center_y":[377,377],"fixation_cross":false,"fixation_cross_width":20,"fixation_cross_height":20,"fixation_cross_color":"black","fixation_cross_thickness":1,"border":false,"border_thickness":1,"border_color":1,"canvas_width":1536,"canvas_height":864,"trial_part":"probe","trial_type":"rdk","trial_index":12,"time_elapsed":20994,"internal_node_id":"0.0-6.0-2.0-1.1","browser_name":"Chrome","browser_type":"88.0","subject":"w906pm7","interaction":"[{\"event\":\"fullscreenenter\",\"trial\":3,\"time\":12037}]","windowWidth":1536,"windowHight":864},{"rt":null,"stimulus":"<p style='color:Green; font-size:150%;'>Corretto</p>","key_press":null,"trial_type":"html-keyboard-response","trial_index":13,"time_elapsed":21502,"internal_node_id":"0.0-6.0-2.0-2.1","browser_name":"Chrome","browser_type":"88.0","subject":"w906pm7","interaction":"[{\"event\":\"fullscreenenter\",\"trial\":3,\"time\":12037}]","windowWidth":1536,"windowHight":864},{"rt":null,"stimulus":"+","key_press":null,"trial_part":"fixation","trial_type":"html-keyboard-response","trial_index":14,"time_elapsed":22006,"internal_node_id":"0.0-6.0-2.0-0.2","browser_name":"Chrome","browser_type":"88.0","subject":"w906pm7","interaction":"[{\"event\":\"fullscreenenter\",\"trial\":3,\"time\":12037}]","windowWidth":1536,"windowHight":864},{"rt":851.3350000139326,"key_press":39,"correct":true,"choices":[37,39],"correct_choice":39,"trial_duration":5000,"response_ends_trial":true,"number_of_apertures":2,"number_of_dots":[200,200],"number_of_sets":1,"coherent_direction":90,"coherence":[0.25,0.75],"opposite_coherence":0,"dot_radius":5,"dot_life":-1,"move_distance":0.5,"aperture_width":300,"aperture_height":300,"dot_color":"white","background_color":"black","RDK_type":3,"aperture_type":2,"reinsert_type":2,"frame_rate":16.52931372461585,"frame_rate_array":"[9.799999999813735,17.14499993249774,16.54500002041459,16.635000007227063,16.500000027008355,16.829999978654087,16.554999980144203,16.734999953769147,16.40000008046627,16.914999927394092,16.670000040903687,16.580000054091215,16.60999993328005,17.530000070109963,15.874999924562871,16.46499999333173,17.349999980069697,15.914999996311963,16.845000092871487,16.57500001601875,16.78499998524785,16.52999990619719,16.740000108256936,16.654999926686287,16.690000076778233,16.639999928884208,16.76999998744577,16.580000054091215,16.629999969154596,16.670000040903687,16.80999994277954,16.50500006508082,16.74499991349876,16.475000069476664,16.684999922290444,16.795000061392784,16.629999969154596,16.644999966956675,16.730000032112002,16.62500004749745,16.57500001601875,16.674999962560833,16.650000005029142,16.614999971352518,16.874999972060323,16.565000056289136,16.51999994646758,16.620000009424984,16.820000018924475,16.64000004529953,16.629999969154596]","number_of_frames":51,"aperture_center_x":[384,1152],"aperture_center_y":[377,377],"fixation_cross":false,"fixation_cross_width":20,"fixation_cross_height":20,"fixation_cross_color":"black","fixation_cross_thickness":1,"border":false,"border_thickness":1,"border_color":1,"canvas_width":1536,"canvas_height":864,"trial_part":"probe","trial_type":"rdk","trial_index":15,"time_elapsed":22859,"internal_node_id":"0.0-6.0-2.0-1.2","browser_name":"Chrome","browser_type":"88.0","subject":"w906pm7","interaction":"[{\"event\":\"fullscreenenter\",\"trial\":3,\"time\":12037}]","windowWidth":1536,"windowHight":864},{"rt":null,"stimulus":"<p style='color:Green; font-size:150%;'>Corretto</p>","key_press":null,"trial_type":"html-keyboard-response","trial_index":16,"time_elapsed":23362,"internal_node_id":"0.0-6.0-2.0-2.2","browser_name":"Chrome","browser_type":"88.0","subject":"w906pm7","interaction":"[{\"event\":\"fullscreenenter\",\"trial\":3,\"time\":12037}]","windowWidth":1536,"windowHight":864},{"rt":null,"stimulus":"+","key_press":null,"trial_part":"fixation","trial_type":"html-keyboard-response","trial_index":17,"time_elapsed":23863,"internal_node_id":"0.0-6.0-2.0-0.3","browser_name":"Chrome","browser_type":"88.0","subject":"w906pm7","interaction":"[{\"event\":\"fullscreenenter\",\"trial\":3,\"time\":12037}]","windowWidth":1536,"windowHight":864},{"rt":1147.4800000432879,"key_press":37,"correct":true,"choices":[37,39],"correct_choice":37,"trial_duration":5000,"response_ends_trial":true,"number_of_apertures":2,"number_of_dots":[100,100],"number_of_sets":1,"coherent_direction":90,"coherence":[0.75,0.25],"opposite_coherence":0,"dot_radius":5,"dot_life":-1,"move_distance":0.5,"aperture_width":300,"aperture_height":300,"dot_color":"white","background_color":"black","RDK_type":3,"aperture_type":2,"reinsert_type":2,"frame_rate":16.461739130993035,"frame_rate_array":"[3.800000064074993,15.475000021979213,16.844999976456165,16.654999926686287,16.72000007238239,16.530000022612512,16.674999962560833,16.549999942071736,16.820000018924475,16.79999998304993,16.340000089257956,16.794999944977462,16.99999999254942,16.3450000109151,16.46499999333173,16.76999998744577,16.730000032112002,16.70499995816499,16.550000058487058,16.685000038705766,16.549999942071736,16.8550000526011,16.659999964758754,16.694999998435378,16.77500002551824,17.050000024028122,16.414999961853027,16.36999996844679,16.610000049695373,16.95999992080033,16.62500004749745,16.694999998435378,16.24000002630055,16.77500002551824,16.714999917894602,16.74500002991408,16.64000004529953,16.594999935477972,17.005000030621886,16.094999969936907,16.76999998744577,16.98499999474734,16.47999999113381,16.635000007227063,16.814999980852008,16.405000002123415,16.890000086277723,16.70499995816499,16.605000011622906,16.44999999552965,16.779999947175384,16.550000058487058,16.494999988935888,16.70499995816499,16.93500007968396,16.92999992519617,16.340000089257956,16.579999937675893,16.644999966956675,16.835000016726553,16.485000029206276,16.68999996036291,16.76000002771616,16.524999984540045,16.645000083371997,17.259999993257225,16.214999952353537,16.530000022612512,16.8899999698624]","number_of_frames":69,"aperture_center_x":[384,1152],"aperture_center_y":[377,377],"fixation_cross":false,"fixation_cross_width":20,"fixation_cross_height":20,"fixation_cross_color":"black","fixation_cross_thickness":1,"border":false,"border_thickness":1,"border_color":1,"canvas_width":1536,"canvas_height":864,"trial_part":"probe","trial_type":"rdk","trial_index":18,"time_elapsed":25013,"internal_node_id":"0.0-6.0-2.0-1.3","browser_name":"Chrome","browser_type":"88.0","subject":"w906pm7","interaction":"[{\"event\":\"fullscreenenter\",\"trial\":3,\"time\":12037}]","windowWidth":1536,"windowHight":864},{"rt":null,"stimulus":"<p style='color:Green; font-size:150%;'>Corretto</p>","key_press":null,"trial_type":"html-keyboard-response","trial_index":19,"time_elapsed":25524,"internal_node_id":"0.0-6.0-2.0-2.3","browser_name":"Chrome","browser_type":"88.0","subject":"w906pm7","interaction":"[{\"event\":\"fullscreenenter\",\"trial\":3,\"time\":12037}]","windowWidth":1536,"windowHight":864},{"rt":null,"stimulus":"+","key_press":null,"trial_part":"fixation","trial_type":"html-keyboard-response","trial_index":20,"time_elapsed":26039,"internal_node_id":"0.0-6.0-2.0-0.4","browser_name":"Chrome","browser_type":"88.0","subject":"w906pm7","interaction":"[{\"event\":\"fullscreenenter\",\"trial\":3,\"time\":12037}]","windowWidth":1536,"windowHight":864},{"rt":1056.3400000100955,"key_press":39,"correct":true,"choices":[37,39],"correct_choice":39,"trial_duration":5000,"response_ends_trial":true,"number_of_apertures":2,"number_of_dots":[100,200],"number_of_sets":1,"coherent_direction":90,"coherence":[0.5,0.5],"opposite_coherence":0,"dot_radius":5,"dot_life":-1,"move_distance":0.5,"aperture_width":300,"aperture_height":300,"dot_color":"white","background_color":"black","RDK_type":3,"aperture_type":2,"reinsert_type":2,"frame_rate":16.533730159853658,"frame_rate_array":"[8.750000037252903,16.530000022612512,16.714999917894602,17.595000099390745,16.00999990478158,16.550000058487058,16.59999997355044,16.47999999113381,16.790000023320317,16.66500000283122,16.629999969154596,16.700000036507845,16.635000007227063,16.709999996237457,16.65500004310161,16.594999935477972,16.780000063590705,16.72999991569668,16.42500003799796,16.610000049695373,16.6649998864159,16.650000005029142,17.010000068694353,16.47999999113381,16.65500004310161,16.68999996036291,16.579999937675893,16.645000083371997,16.71999995596707,16.724999994039536,16.45500003360212,16.685000038705766,16.78499998524785,16.614999971352518,16.709999996237457,16.590000013820827,16.749999951571226,16.70500007458031,16.594999935477972,16.54500002041459,16.84000005479902,16.574999899603426,16.76000002771616,16.470000031404197,16.654999926686287,16.730000032112002,17.190000042319298,16.229999950155616,16.58499997574836,16.630000085569918,16.669999924488366,16.620000009424984,16.690000076778233,16.654999926686287,16.57500001601875,16.56000001821667,16.915000043809414,16.524999984540045,16.644999966956675,16.68999996036291,16.62500004749745,16.754999989643693,16.62500004749745]","number_of_frames":63,"aperture_center_x":[384,1152],"aperture_center_y":[377,377],"fixation_cross":false,"fixation_cross_width":20,"fixation_cross_height":20,"fixation_cross_color":"black","fixation_cross_thickness":1,"border":false,"border_thickness":1,"border_color":1,"canvas_width":1536,"canvas_height":864,"trial_part":"probe","trial_type":"rdk","trial_index":21,"time_elapsed":27098,"internal_node_id":"0.0-6.0-2.0-1.4","browser_name":"Chrome","browser_type":"88.0","subject":"w906pm7","interaction":"[{\"event\":\"fullscreenenter\",\"trial\":3,\"time\":12037}]","windowWidth":1536,"windowHight":864},{"rt":null,"stimulus":"<p style='color:Green; font-size:150%;'>Corretto</p>","key_press":null,"trial_type":"html-keyboard-response","trial_index":22,"time_elapsed":27608,"internal_node_id":"0.0-6.0-2.0-2.4","browser_name":"Chrome","browser_type":"88.0","subject":"w906pm7","interaction":"[{\"event\":\"fullscreenenter\",\"trial\":3,\"time\":12037}]","windowWidth":1536,"windowHight":864},{"rt":null,"stimulus":"+","key_press":null,"trial_part":"fixation","trial_type":"html-keyboard-response","trial_index":23,"time_elapsed":28109,"internal_node_id":"0.0-6.0-2.0-0.5","browser_name":"Chrome","browser_type":"88.0","subject":"w906pm7","interaction":"[{\"event\":\"fullscreenenter\",\"trial\":3,\"time\":12037}]","windowWidth":1536,"windowHight":864},{"rt":834.9900000030175,"key_press":37,"correct":true,"choices":[37,39],"correct_choice":37,"trial_duration":5000,"response_ends_trial":true,"number_of_apertures":2,"number_of_dots":[100,200],"number_of_sets":1,"coherent_direction":90,"coherence":[1,0.25],"opposite_coherence":0,"dot_radius":5,"dot_life":-1,"move_distance":0.5,"aperture_width":300,"aperture_height":300,"dot_color":"white","background_color":"black","RDK_type":3,"aperture_type":2,"reinsert_type":2,"frame_rate":16.406399998813868,"frame_rate_array":"[7.134999963454902,13.284999993629754,16.66500000283122,16.3450000109151,16.989999916404486,16.70500007458031,16.659999964758754,16.410000040195882,16.994999954476953,16.814999980852008,16.375000006519258,16.820000018924475,16.485000029206276,16.874999972060323,16.810000059194863,16.334999934770167,16.750000067986548,16.70499995816499,16.339999972842634,16.995000070892274,16.564999939873815,16.500000027008355,16.874999972060323,16.539999982342124,16.70500007458031,16.339999972842634,16.874999972060323,16.814999980852008,16.53500006068498,16.76999998744577,16.639999928884208,16.83000009506941,16.10499992966652,17.210000078193843,16.5049999486655,16.65500004310161,16.534999944269657,16.724999994039536,16.79999998304993,16.565000056289136,16.654999926686287,16.66500000283122,16.60000008996576,16.629999969154596,16.82499994058162,16.550000058487058,16.77500002551824,16.779999947175384,16.309999977238476,16.94500003941357]","number_of_frames":50,"aperture_center_x":[384,1152],"aperture_center_y":[377,377],"fixation_cross":false,"fixation_cross_width":20,"fixation_cross_height":20,"fixation_cross_color":"black","fixation_cross_thickness":1,"border":false,"border_thickness":1,"border_color":1,"canvas_width":1536,"canvas_height":864,"trial_part":"probe","trial_type":"rdk","trial_index":24,"time_elapsed":28946,"internal_node_id":"0.0-6.0-2.0-1.5","browser_name":"Chrome","browser_type":"88.0","subject":"w906pm7","interaction":"[{\"event\":\"fullscreenenter\",\"trial\":3,\"time\":12037}]","windowWidth":1536,"windowHight":864},{"rt":null,"stimulus":"<p style='color:Green; font-size:150%;'>Corretto</p>","key_press":null,"trial_type":"html-keyboard-response","trial_index":25,"time_elapsed":29460,"internal_node_id":"0.0-6.0-2.0-2.5","browser_name":"Chrome","browser_type":"88.0","subject":"w906pm7","interaction":"[{\"event\":\"fullscreenenter\",\"trial\":3,\"time\":12037}]","windowWidth":1536,"windowHight":864},{"rt":null,"stimulus":"+","key_press":null,"trial_part":"fixation","trial_type":"html-keyboard-response","trial_index":26,"time_elapsed":29975,"internal_node_id":"0.0-6.0-2.0-0.6","browser_name":"Chrome","browser_type":"88.0","subject":"w906pm7","interaction":"[{\"event\":\"fullscreenenter\",\"trial\":3,\"time\":12037}]","windowWidth":1536,"windowHight":864},{"rt":736.2300000386313,"key_press":37,"correct":true,"choices":[37,39],"correct_choice":37,"trial_duration":5000,"response_ends_trial":true,"number_of_apertures":2,"number_of_dots":[200,100],"number_of_sets":1,"coherent_direction":90,"coherence":[1,1],"opposite_coherence":0,"dot_radius":5,"dot_life":-1,"move_distance":0.5,"aperture_width":300,"aperture_height":300,"dot_color":"white","background_color":"black","RDK_type":3,"aperture_type":2,"reinsert_type":2,"frame_rate":16.37704545547339,"frame_rate_array":"[6.28500001039356,14.495000010356307,16.715000034309924,16.62499993108213,16.835000016726553,16.629999969154596,16.460000071674585,16.684999922290444,16.750000067986548,16.54500002041459,16.789999906904995,16.845000092871487,16.454999917186797,16.700000036507845,16.56000001821667,16.579999937675893,16.82500005699694,16.82499994058162,16.630000085569918,16.714999917894602,16.54500002041459,16.550000058487058,16.56000001821667,16.78499998524785,16.90499996766448,16.309999977238476,16.885000048205256,16.524999984540045,16.709999996237457,16.590000013820827,16.739999991841614,16.524999984540045,16.620000009424984,16.790000023320317,16.709999996237457,16.509999986737967,16.509999986737967,16.794999944977462,16.635000007227063,16.875000088475645,16.564999939873815,16.590000013820827,16.74500002991408,16.66500000283122]","number_of_frames":44,"aperture_center_x":[384,1152],"aperture_center_y":[377,377],"fixation_cross":false,"fixation_cross_width":20,"fixation_cross_height":20,"fixation_cross_color":"black","fixation_cross_thickness":1,"border":false,"border_thickness":1,"border_color":1,"canvas_width":1536,"canvas_height":864,"trial_part":"probe","trial_type":"rdk","trial_index":27,"time_elapsed":30714,"internal_node_id":"0.0-6.0-2.0-1.6","browser_name":"Chrome","browser_type":"88.0","subject":"w906pm7","interaction":"[{\"event\":\"fullscreenenter\",\"trial\":3,\"time\":12037}]","windowWidth":1536,"windowHight":864},{"rt":null,"stimulus":"<p style='color:Green; font-size:150%;'>Corretto</p>","key_press":null,"trial_type":"html-keyboard-response","trial_index":28,"time_elapsed":31220,"internal_node_id":"0.0-6.0-2.0-2.6","browser_name":"Chrome","browser_type":"88.0","subject":"w906pm7","interaction":"[{\"event\":\"fullscreenenter\",\"trial\":3,\"time\":12037}]","windowWidth":1536,"windowHight":864},{"rt":null,"stimulus":"+","key_press":null,"trial_part":"fixation","trial_type":"html-keyboard-response","trial_index":29,"time_elapsed":31721,"internal_node_id":"0.0-6.0-2.0-0.7","browser_name":"Chrome","browser_type":"88.0","subject":"w906pm7","interaction":"[{\"event\":\"fullscreenenter\",\"trial\":3,\"time\":12037}]","windowWidth":1536,"windowHight":864},{"rt":941.5599999483675,"key_press":39,"correct":true,"choices":[37,39],"correct_choice":39,"trial_duration":5000,"response_ends_trial":true,"number_of_apertures":2,"number_of_dots":[200,200],"number_of_sets":1,"coherent_direction":90,"coherence":[0.25,0.75],"opposite_coherence":0,"dot_radius":5,"dot_life":-1,"move_distance":0.5,"aperture_width":300,"aperture_height":300,"dot_color":"white","background_color":"black","RDK_type":3,"aperture_type":2,"reinsert_type":2,"frame_rate":16.51812500079229,"frame_rate_array":"[8.805000106804073,16.74499991349876,16.5200000628829,16.674999962560833,16.835000016726553,16.78499998524785,16.434999997727573,16.59999997355044,16.74500002991408,16.66500000283122,16.915000043809414,16.299999901093543,16.585000092163682,16.805000021122396,16.669999924488366,16.70500007458031,16.5049999486655,16.724999994039536,16.754999989643693,16.635000007227063,16.36000000871718,16.850000014528632,16.700000036507845,16.589999897405505,16.700000036507845,16.70499995816499,16.445000073872507,16.684999922290444,16.76000002771616,16.73500007018447,16.590000013820827,16.619999893009663,16.460000071674585,17.110000015236437,16.74499991349876,16.694999998435378,16.19000011123717,16.854999936185777,16.62500004749745,16.694999998435378,16.57500001601875,16.74499991349876,16.62500004749745,16.629999969154596,16.66500000283122,16.82500005699694,16.5049999486655,16.84000005479902,16.349999932572246,16.780000063590705,16.72999991569668,16.57500001601875,16.76000002771616,16.629999969154596,16.595000051893294,16.659999964758754]","number_of_frames":56,"aperture_center_x":[384,1152],"aperture_center_y":[377,377],"fixation_cross":false,"fixation_cross_width":20,"fixation_cross_height":20,"fixation_cross_color":"black","fixation_cross_thickness":1,"border":false,"border_thickness":1,"border_color":1,"canvas_width":1536,"canvas_height":864,"trial_part":"probe","trial_type":"rdk","trial_index":30,"time_elapsed":32664,"internal_node_id":"0.0-6.0-2.0-1.7","browser_name":"Chrome","browser_type":"88.0","subject":"w906pm7","interaction":"[{\"event\":\"fullscreenenter\",\"trial\":3,\"time\":12037}]","windowWidth":1536,"windowHight":864},{"rt":null,"stimulus":"<p style='color:Green; font-size:150%;'>Corretto</p>","key_press":null,"trial_type":"html-keyboard-response","trial_index":31,"time_elapsed":33172,"internal_node_id":"0.0-6.0-2.0-2.7","browser_name":"Chrome","browser_type":"88.0","subject":"w906pm7","interaction":"[{\"event\":\"fullscreenenter\",\"trial\":3,\"time\":12037}]","windowWidth":1536,"windowHight":864},{"rt":1073.8849999615923,"stimulus":"<div>\n          <font style=\"font-size:110%;\">Complimenti!</font> \n          <br><br/>\n          Hai completato con successo questa parte.\n          <br><br/>\n          <p style=\"font-size:110%;\"> Premi la <b>BARRA SPAZIATRICE</b> per passare alla fase successiva</p>\n          </div>","key_press":32,"trial_type":"html-keyboard-response","trial_index":32,"time_elapsed":34247,"internal_node_id":"0.0-7.0","browser_name":"Chrome","browser_type":"88.0","subject":"w906pm7","interaction":"[{\"event\":\"fullscreenenter\",\"trial\":3,\"time\":12037}]","windowWidth":1536,"windowHight":864},{"rt":554.4649999355897,"stimulus":"<div>\n          D'ora in poi, anche i colori dei punti determineranno il valore della 'nuvola'\n          <br><br/>\n          I punti bianchi valgono <b>0</b>; I punti rossi valgono <b>1</b>. \n          &nbsp;&nbsp;&nbsp;&nbsp;&nbsp;&nbsp;&nbsp;&nbsp;&nbsp;&nbsp;&nbsp;\n          <img class=\"moveimage3\" width=\"17%\" style=margin-Top:18px src=\"../img/img5.png\">\n          <br>\n          I colori intermedi hanno un valore compreso tra 0 e 1. \n          &nbsp;&nbsp;&nbsp;&nbsp;&nbsp;&nbsp;&nbsp;&nbsp;&nbsp;&nbsp;&nbsp;&nbsp;&nbsp;&nbsp;&nbsp;&nbsp;&nbsp;&nbsp;&nbsp;&nbsp;&nbsp;\n          &nbsp;&nbsp;&nbsp;&nbsp;&nbsp;&nbsp;&nbsp;&nbsp;&nbsp;&nbsp;&nbsp;&nbsp;&nbsp;&nbsp;\n          <br><br/> \n          <p> Ricorda che: </p>\n          I punti che si muovono verso l'alto valgono <b>1</b>\n          &nbsp;&nbsp;&nbsp;&nbsp;&nbsp;&nbsp;&nbsp;&nbsp;&nbsp;&nbsp;&nbsp;&nbsp;&nbsp;&nbsp;&nbsp;&nbsp;&nbsp;&nbsp;&nbsp;&nbsp;&nbsp;\n          &nbsp;&nbsp;&nbsp;&nbsp;&nbsp;&nbsp;&nbsp;&nbsp;&nbsp;&nbsp;&nbsp;&nbsp;&nbsp;&nbsp;&nbsp;  \n          <img class=\"moveimage1\" width=\"3%\" style=margin-Top:18px src=\"../img/img0.png\"> = 1\n          <br>\n          I punti che si muovono verso qualsiasi altra direzione valgono <b>0</b> \n          &nbsp;&nbsp;&nbsp;&nbsp;&nbsp;&nbsp;\n          <img class=\"moveimage2\" width=\"3%\" src=\"../img/img1.png\"> = 0\n          <br><br>\n          <font style=\"font-size:100%;\"> Premi la <b>BARRA SPAZIATRICE<b> per andare avanti </font>          \n          </div>","key_press":32,"trial_type":"html-keyboard-response","trial_index":33,"time_elapsed":34802,"internal_node_id":"0.0-8.0-0.0","browser_name":"Chrome","browser_type":"88.0","subject":"w906pm7","interaction":"[{\"event\":\"fullscreenenter\",\"trial\":3,\"time\":12037}]","windowWidth":1536,"windowHight":864},{"rt":395.4800000647083,"stimulus":"<div>\n          Così come prima, il valore della 'nuvola' è dato dalla somma del valore dei punti \n          <br>          \n          <img class=\"moveimage3\" width=\"20%\" style=margin-Top:18px src=\"../img/img6.png\">\n          <br><br/>\n          &nbsp;&nbsp;&nbsp;&nbsp;&nbsp;&nbsp;&nbsp;&nbsp;&nbsp;&nbsp;&nbsp;&nbsp;&nbsp;&nbsp;\n          &nbsp;&nbsp;&nbsp;&nbsp;&nbsp;&nbsp;&nbsp;&nbsp;&nbsp;&nbsp;&nbsp;&nbsp;&nbsp;&nbsp;\n          &nbsp;&nbsp;&nbsp;&nbsp;&nbsp;&nbsp;\n          <img class=\"moveimage3\" width=\"50%\" style=margin-Top:18px src=\"../img/img7.png\">\n          <br><br><br>\n          <font style=\"font-size:100%;\"> Premi la <b>BARRA SPAZIATRICE<b> per andare avanti </font>\n          </div>","key_press":32,"trial_type":"html-keyboard-response","trial_index":34,"time_elapsed":35199,"internal_node_id":"0.0-8.0-1.0","browser_name":"Chrome","browser_type":"88.0","subject":"w906pm7","interaction":"[{\"event\":\"fullscreenenter\",\"trial\":3,\"time\":12037}]","windowWidth":1536,"windowHight":864},{"rt":null,"stimulus":"+","key_press":null,"trial_part":"fixation","trial_type":"html-keyboard-response","trial_index":35,"time_elapsed":35710,"internal_node_id":"0.0-8.0-2.0-0.0","browser_name":"Chrome","browser_type":"88.0","subject":"w906pm7","interaction":"[{\"event\":\"fullscreenenter\",\"trial\":3,\"time\":12037}]","windowWidth":1536,"windowHight":864},{"rt":1108.989999978803,"key_press":39,"correct":true,"choices":[37,39],"correct_choice":39,"trial_duration":5000,"response_ends_trial":true,"number_of_apertures":2,"number_of_dots":[100,100],"number_of_sets":1,"coherent_direction":90,"coherence":[0,0.5],"opposite_coherence":0,"dot_radius":5,"dot_life":-1,"move_distance":0.5,"aperture_width":300,"aperture_height":300,"dot_color":["white","#ef8b08"],"background_color":"black","RDK_type":3,"aperture_type":2,"reinsert_type":2,"frame_rate":16.443880596337145,"frame_rate_array":"[3.969999961555004,14.949999982491136,16.844999976456165,16.350000048987567,16.530000022612512,16.694999998435378,16.874999972060323,16.650000005029142,16.794999944977462,16.46499999333173,16.96000003721565,16.42500003799796,16.36999996844679,16.97500003501773,16.629999969154596,16.635000007227063,16.71999995596707,16.645000083371997,16.669999924488366,16.620000009424984,16.754999989643693,16.50500006508082,16.724999994039536,16.590000013820827,16.60999993328005,16.950000077486038,16.494999988935888,16.89500000793487,17.409999971278012,16.164999920874834,15.970000065863132,17.140000010840595,16.259999945759773,16.885000048205256,16.500000027008355,16.779999947175384,16.709999996237457,16.76000002771616,16.434999997727573,16.590000013820827,17.174999928101897,16.430000076070428,16.300000017508864,16.874999972060323,16.685000038705766,16.549999942071736,16.764999949373305,16.49500010535121,16.71999995596707,16.814999980852008,16.629999969154596,16.645000083371997,16.5049999486655,16.835000016726553,16.500000027008355,16.754999989643693,16.46499999333173,16.994999954476953,16.730000032112002,16.219999990426004,16.810000059194863,16.954999999143183,16.534999944269657,16.590000013820827,16.76999998744577,16.565000056289136,16.51999994646758]","number_of_frames":67,"aperture_center_x":[384,1152],"aperture_center_y":[377,377],"fixation_cross":false,"fixation_cross_width":20,"fixation_cross_height":20,"fixation_cross_color":"black","fixation_cross_thickness":1,"border":false,"border_thickness":1,"border_color":1,"canvas_width":1536,"canvas_height":864,"trial_part":"probe2","trial_type":"rdk","trial_index":36,"time_elapsed":36821,"internal_node_id":"0.0-8.0-2.0-1.0","browser_name":"Chrome","browser_type":"88.0","subject":"w906pm7","interaction":"[{\"event\":\"fullscreenenter\",\"trial\":3,\"time\":12037}]","windowWidth":1536,"windowHight":864},{"rt":null,"stimulus":"<p style='color:Green; font-size:150%;'>Corretto</p>","key_press":null,"trial_type":"html-keyboard-response","trial_index":37,"time_elapsed":37322,"internal_node_id":"0.0-8.0-2.0-2.0","browser_name":"Chrome","browser_type":"88.0","subject":"w906pm7","interaction":"[{\"event\":\"fullscreenenter\",\"trial\":3,\"time\":12037}]","windowWidth":1536,"windowHight":864},{"rt":null,"stimulus":"+","key_press":null,"trial_part":"fixation","trial_type":"html-keyboard-response","trial_index":38,"time_elapsed":37838,"internal_node_id":"0.0-8.0-2.0-0.1","browser_name":"Chrome","browser_type":"88.0","subject":"w906pm7","interaction":"[{\"event\":\"fullscreenenter\",\"trial\":3,\"time\":12037}]","windowWidth":1536,"windowHight":864},{"rt":745.6099999835715,"key_press":37,"correct":true,"choices":[37,39],"correct_choice":37,"trial_duration":5000,"response_ends_trial":true,"number_of_apertures":2,"number_of_dots":[200,100],"number_of_sets":1,"coherent_direction":90,"coherence":[0.5,0.5],"opposite_coherence":0,"dot_radius":5,"dot_life":-1,"move_distance":0.5,"aperture_width":300,"aperture_height":300,"dot_color":["#ef8b08","#ef8b08"],"background_color":"black","RDK_type":3,"aperture_type":2,"reinsert_type":2,"frame_rate":16.45133333125462,"frame_rate_array":"[7.319999975152314,16.56999997794628,16.56999997794628,16.82500005699694,16.44999999552965,17.34499994199723,15.980000025592744,16.78499998524785,16.62500004749745,16.76999998744577,16.51999994646758,16.715000034309924,16.590000013820827,16.730000032112002,16.549999942071736,16.750000067986548,16.714999917894602,16.494999988935888,16.754999989643693,16.700000036507845,17.005000030621886,16.805000021122396,16.115000005811453,16.639999928884208,16.750000067986548,16.659999964758754,16.629999969154596,16.730000032112002,16.674999962560833,16.554999980144203,16.755000106059015,16.474999953061342,16.86500001233071,16.764999949373305,16.44999999552965,16.590000013820827,16.650000005029142,16.635000007227063,16.940000001341105,16.590000013820827,16.444999957457185,16.89500000793487,16.65500004310161,16.60999993328005,16.66500000283122]","number_of_frames":45,"aperture_center_x":[384,1152],"aperture_center_y":[377,377],"fixation_cross":false,"fixation_cross_width":20,"fixation_cross_height":20,"fixation_cross_color":"black","fixation_cross_thickness":1,"border":false,"border_thickness":1,"border_color":1,"canvas_width":1536,"canvas_height":864,"trial_part":"probe2","trial_type":"rdk","trial_index":39,"time_elapsed":38585,"internal_node_id":"0.0-8.0-2.0-1.1","browser_name":"Chrome","browser_type":"88.0","subject":"w906pm7","interaction":"[{\"event\":\"fullscreenenter\",\"trial\":3,\"time\":12037}]","windowWidth":1536,"windowHight":864},{"rt":null,"stimulus":"<p style='color:Green; font-size:150%;'>Corretto</p>","key_press":null,"trial_type":"html-keyboard-response","trial_index":40,"time_elapsed":39086,"internal_node_id":"0.0-8.0-2.0-2.1","browser_name":"Chrome","browser_type":"88.0","subject":"w906pm7","interaction":"[{\"event\":\"fullscreenenter\",\"trial\":3,\"time\":12037}]","windowWidth":1536,"windowHight":864},{"rt":null,"stimulus":"+","key_press":null,"trial_part":"fixation","trial_type":"html-keyboard-response","trial_index":41,"time_elapsed":39602,"internal_node_id":"0.0-8.0-2.0-0.2","browser_name":"Chrome","browser_type":"88.0","subject":"w906pm7","interaction":"[{\"event\":\"fullscreenenter\",\"trial\":3,\"time\":12037}]","windowWidth":1536,"windowHight":864},{"rt":814.9950000224635,"key_press":37,"correct":true,"choices":[37,39],"correct_choice":37,"trial_duration":5000,"response_ends_trial":true,"number_of_apertures":2,"number_of_dots":[200,100],"number_of_sets":1,"coherent_direction":90,"coherence":[0.75,0.5],"opposite_coherence":0,"dot_radius":5,"dot_life":-1,"move_distance":0.5,"aperture_width":300,"aperture_height":300,"dot_color":["#f2ce00","white"],"background_color":"black","RDK_type":3,"aperture_type":2,"reinsert_type":2,"frame_rate":16.4738775501788,"frame_rate_array":"[8.374999975785613,14.955000020563602,16.764999949373305,16.724999994039536,16.500000027008355,16.550000058487058,16.635000007227063,16.940000001341105,16.51499990839511,16.550000058487058,16.6800000006333,16.68999996036291,16.66500000283122,16.724999994039536,16.610000049695373,16.650000005029142,16.70499995816499,16.86500001233071,16.47999999113381,16.635000007227063,16.68999996036291,16.739999991841614,17.140000010840595,16.10500004608184,16.605000011622906,16.694999998435378,16.51999994646758,16.88000001013279,16.45500003360212,16.614999971352518,17.340000020340085,16.02500001899898,16.694999998435378,16.779999947175384,16.650000005029142,16.645000083371997,16.86499989591539,16.285000019706786,16.885000048205256,16.410000040195882,16.94499992299825,16.475000069476664,16.724999994039536,16.699999920092523,16.53500006068498,16.68999996036291,16.810000059194863,16.474999953061342,17.62499997857958]","number_of_frames":49,"aperture_center_x":[384,1152],"aperture_center_y":[377,377],"fixation_cross":false,"fixation_cross_width":20,"fixation_cross_height":20,"fixation_cross_color":"black","fixation_cross_thickness":1,"border":false,"border_thickness":1,"border_color":1,"canvas_width":1536,"canvas_height":864,"trial_part":"probe2","trial_type":"rdk","trial_index":42,"time_elapsed":40418,"internal_node_id":"0.0-8.0-2.0-1.2","browser_name":"Chrome","browser_type":"88.0","subject":"w906pm7","interaction":"[{\"event\":\"fullscreenenter\",\"trial\":3,\"time\":12037}]","windowWidth":1536,"windowHight":864},{"rt":null,"stimulus":"<p style='color:Green; font-size:150%;'>Corretto</p>","key_press":null,"trial_type":"html-keyboard-response","trial_index":43,"time_elapsed":40919,"internal_node_id":"0.0-8.0-2.0-2.2","browser_name":"Chrome","browser_type":"88.0","subject":"w906pm7","interaction":"[{\"event\":\"fullscreenenter\",\"trial\":3,\"time\":12037}]","windowWidth":1536,"windowHight":864},{"rt":null,"stimulus":"+","key_press":null,"trial_part":"fixation","trial_type":"html-keyboard-response","trial_index":44,"time_elapsed":41434,"internal_node_id":"0.0-8.0-2.0-0.3","browser_name":"Chrome","browser_type":"88.0","subject":"w906pm7","interaction":"[{\"event\":\"fullscreenenter\",\"trial\":3,\"time\":12037}]","windowWidth":1536,"windowHight":864},{"rt":798.5000000335276,"key_press":39,"correct":true,"choices":[37,39],"correct_choice":39,"trial_duration":5000,"response_ends_trial":true,"number_of_apertures":2,"number_of_dots":[100,200],"number_of_sets":1,"coherent_direction":90,"coherence":[1,1],"opposite_coherence":0,"dot_radius":5,"dot_life":-1,"move_distance":0.5,"aperture_width":300,"aperture_height":300,"dot_color":["#ed3a1c","#ed3a1c"],"background_color":"black","RDK_type":3,"aperture_type":2,"reinsert_type":2,"frame_rate":16.454583332233597,"frame_rate_array":"[6.7900000140070915,16.884999931789935,16.644999966956675,16.46499999333173,16.93500007968396,16.339999972842634,16.79999998304993,16.65500004310161,16.78499998524785,16.494999988935888,16.82500005699694,16.559999901801348,16.590000013820827,16.730000032112002,16.48999995086342,16.73500007018447,16.884999931789935,16.675000078976154,16.56999997794628,16.594999935477972,16.875000088475645,16.30499993916601,16.86500001233071,16.98499999474734,16.189999994821846,16.780000063590705,16.694999998435378,16.650000005029142,16.54499990399927,16.80000009946525,16.78499998524785,16.554999980144203,16.650000005029142,16.590000013820827,16.614999971352518,17.130000051110983,16.989999916404486,15.90500003658235,16.56999997794628,16.76999998744577,16.56000001821667,16.66500000283122,16.850000014528632,16.549999942071736,16.76000002771616,16.659999964758754,16.550000058487058,16.524999984540045]","number_of_frames":48,"aperture_center_x":[384,1152],"aperture_center_y":[377,377],"fixation_cross":false,"fixation_cross_width":20,"fixation_cross_height":20,"fixation_cross_color":"black","fixation_cross_thickness":1,"border":false,"border_thickness":1,"border_color":1,"canvas_width":1536,"canvas_height":864,"trial_part":"probe2","trial_type":"rdk","trial_index":45,"time_elapsed":42234,"internal_node_id":"0.0-8.0-2.0-1.3","browser_name":"Chrome","browser_type":"88.0","subject":"w906pm7","interaction":"[{\"event\":\"fullscreenenter\",\"trial\":3,\"time\":12037}]","windowWidth":1536,"windowHight":864},{"rt":null,"stimulus":"<p style='color:Green; font-size:150%;'>Corretto</p>","key_press":null,"trial_type":"html-keyboard-response","trial_index":46,"time_elapsed":42745,"internal_node_id":"0.0-8.0-2.0-2.3","browser_name":"Chrome","browser_type":"88.0","subject":"w906pm7","interaction":"[{\"event\":\"fullscreenenter\",\"trial\":3,\"time\":12037}]","windowWidth":1536,"windowHight":864},{"rt":null,"stimulus":"+","key_press":null,"trial_part":"fixation","trial_type":"html-keyboard-response","trial_index":47,"time_elapsed":43246,"internal_node_id":"0.0-8.0-2.0-0.4","browser_name":"Chrome","browser_type":"88.0","subject":"w906pm7","interaction":"[{\"event\":\"fullscreenenter\",\"trial\":3,\"time\":12037}]","windowWidth":1536,"windowHight":864},{"rt":985.6399999698624,"key_press":39,"correct":true,"choices":[37,39],"correct_choice":39,"trial_duration":5000,"response_ends_trial":true,"number_of_apertures":2,"number_of_dots":[100,200],"number_of_sets":1,"coherent_direction":90,"coherence":[1,1],"opposite_coherence":0,"dot_radius":5,"dot_life":-1,"move_distance":0.5,"aperture_width":300,"aperture_height":300,"dot_color":["#f5ff00","#f5ff00"],"background_color":"black","RDK_type":3,"aperture_type":2,"reinsert_type":2,"frame_rate":16.620847457719936,"frame_rate_array":"[13.56000010855496,16.51499990839511,16.805000021122396,16.635000007227063,16.76000002771616,16.564999939873815,16.64000004529953,16.595000051893294,16.859999974258244,16.60999993328005,16.79999998304993,16.395000042393804,16.805000021122396,16.78499998524785,16.47999999113381,16.595000051893294,16.734999953769147,16.71999995596707,16.74500002991408,16.485000029206276,16.674999962560833,16.650000005029142,16.76000002771616,16.62500004749745,16.549999942071736,16.934999963268638,16.32000005338341,16.8399999383837,16.660000081174076,16.485000029206276,16.709999996237457,16.80999994277954,16.670000040903687,16.594999935477972,16.65500004310161,16.739999991841614,16.590000013820827,16.639999928884208,16.740000108256936,16.989999916404486,16.315000015310943,16.614999971352518,16.73500007018447,16.554999980144203,17.16000004671514,16.22499991208315,16.64000004529953,16.734999953769147,16.565000056289136,16.699999920092523,16.74500002991408,16.53500006068498,16.59999997355044,17.134999972768128,16.30500005558133,16.629999969154596,16.62500004749745,16.694999998435378,17.384999897331]","number_of_frames":59,"aperture_center_x":[384,1152],"aperture_center_y":[377,377],"fixation_cross":false,"fixation_cross_width":20,"fixation_cross_height":20,"fixation_cross_color":"black","fixation_cross_thickness":1,"border":false,"border_thickness":1,"border_color":1,"canvas_width":1536,"canvas_height":864,"trial_part":"probe2","trial_type":"rdk","trial_index":48,"time_elapsed":44233,"internal_node_id":"0.0-8.0-2.0-1.4","browser_name":"Chrome","browser_type":"88.0","subject":"w906pm7","interaction":"[{\"event\":\"fullscreenenter\",\"trial\":3,\"time\":12037}]","windowWidth":1536,"windowHight":864},{"rt":null,"stimulus":"<p style='color:Green; font-size:150%;'>Corretto</p>","key_press":null,"trial_type":"html-keyboard-response","trial_index":49,"time_elapsed":44740,"internal_node_id":"0.0-8.0-2.0-2.4","browser_name":"Chrome","browser_type":"88.0","subject":"w906pm7","interaction":"[{\"event\":\"fullscreenenter\",\"trial\":3,\"time\":12037}]","windowWidth":1536,"windowHight":864},{"rt":null,"stimulus":"+","key_press":null,"trial_part":"fixation","trial_type":"html-keyboard-response","trial_index":50,"time_elapsed":45256,"internal_node_id":"0.0-8.0-2.0-0.5","browser_name":"Chrome","browser_type":"88.0","subject":"w906pm7","interaction":"[{\"event\":\"fullscreenenter\",\"trial\":3,\"time\":12037}]","windowWidth":1536,"windowHight":864},{"rt":769.620000035502,"key_press":37,"correct":true,"choices":[37,39],"correct_choice":37,"trial_duration":5000,"response_ends_trial":true,"number_of_apertures":2,"number_of_dots":[200,200],"number_of_sets":1,"coherent_direction":90,"coherence":[1,1],"opposite_coherence":0,"dot_radius":5,"dot_life":-1,"move_distance":0.5,"aperture_width":300,"aperture_height":300,"dot_color":["#ed3a1c","white"],"background_color":"black","RDK_type":3,"aperture_type":2,"reinsert_type":2,"frame_rate":16.3814130431527,"frame_rate_array":"[7.04499997664243,13.795000035315752,16.3450000109151,16.90499996766448,16.715000034309924,16.214999952353537,16.810000059194863,16.56999997794628,17.14499993249774,16.285000019706786,16.795000061392784,16.79999998304993,16.274999943561852,16.675000078976154,16.57500001601875,16.854999936185777,16.795000061392784,16.579999937675893,16.700000036507845,16.654999926686287,16.195000032894313,17.140000010840595,16.810000059194863,16.459999955259264,16.794999944977462,16.285000019706786,16.765000065788627,16.754999989643693,16.20999991428107,17.16000004671514,16.605000011622906,16.44000003580004,17.10499997716397,16.259999945759773,16.6800000006333,16.685000038705766,16.77500002551824,16.509999986737967,16.925000003539026,16.530000022612512,16.639999928884208,16.715000034309924,16.76000002771616,16.364999930374324,16.954999999143183,16.485000029206276]","number_of_frames":46,"aperture_center_x":[384,1152],"aperture_center_y":[377,377],"fixation_cross":false,"fixation_cross_width":20,"fixation_cross_height":20,"fixation_cross_color":"black","fixation_cross_thickness":1,"border":false,"border_thickness":1,"border_color":1,"canvas_width":1536,"canvas_height":864,"trial_part":"probe2","trial_type":"rdk","trial_index":51,"time_elapsed":46026,"internal_node_id":"0.0-8.0-2.0-1.5","browser_name":"Chrome","browser_type":"88.0","subject":"w906pm7","interaction":"[{\"event\":\"fullscreenenter\",\"trial\":3,\"time\":12037}]","windowWidth":1536,"windowHight":864},{"rt":null,"stimulus":"<p style='color:Green; font-size:150%;'>Corretto</p>","key_press":null,"trial_type":"html-keyboard-response","trial_index":52,"time_elapsed":46527,"internal_node_id":"0.0-8.0-2.0-2.5","browser_name":"Chrome","browser_type":"88.0","subject":"w906pm7","interaction":"[{\"event\":\"fullscreenenter\",\"trial\":3,\"time\":12037}]","windowWidth":1536,"windowHight":864},{"rt":null,"stimulus":"+","key_press":null,"trial_part":"fixation","trial_type":"html-keyboard-response","trial_index":53,"time_elapsed":47028,"internal_node_id":"0.0-8.0-2.0-0.6","browser_name":"Chrome","browser_type":"88.0","subject":"w906pm7","interaction":"[{\"event\":\"fullscreenenter\",\"trial\":3,\"time\":12037}]","windowWidth":1536,"windowHight":864},{"rt":802.9250000836328,"key_press":39,"correct":true,"choices":[37,39],"correct_choice":39,"trial_duration":5000,"response_ends_trial":true,"number_of_apertures":2,"number_of_dots":[200,200],"number_of_sets":1,"coherent_direction":90,"coherence":[0,0.75],"opposite_coherence":0,"dot_radius":5,"dot_life":-1,"move_distance":0.5,"aperture_width":300,"aperture_height":300,"dot_color":["#ed3a1c","#f2ce00"],"background_color":"black","RDK_type":3,"aperture_type":2,"reinsert_type":2,"frame_rate":16.58968750174002,"frame_rate_array":"[13.389999978244305,16.53500006068498,16.644999966956675,16.530000022612512,16.814999980852008,16.565000056289136,16.650000005029142,16.774999909102917,17.035000026226044,16.275000059977174,16.594999935477972,16.694999998435378,16.78499998524785,16.72000007238239,16.620000009424984,16.579999937675893,16.64000004529953,16.654999926686287,16.595000051893294,16.650000005029142,16.605000011622906,16.76999998744577,16.580000054091215,16.589999897405505,16.694999998435378,16.770000103861094,16.59999997355044,17.164999968372285,16.309999977238476,16.38500008266419,16.940000001341105,16.499999910593033,16.660000081174076,16.76999998744577,16.594999935477972,16.65500004310161,16.635000007227063,16.70499995816499,16.675000078976154,16.68999996036291,16.590000013820827,16.635000007227063,16.594999935477972,16.8550000526011,16.80999994277954,16.750000067986548,16.364999930374324,16.660000081174076]","number_of_frames":48,"aperture_center_x":[384,1152],"aperture_center_y":[377,377],"fixation_cross":false,"fixation_cross_width":20,"fixation_cross_height":20,"fixation_cross_color":"black","fixation_cross_thickness":1,"border":false,"border_thickness":1,"border_color":1,"canvas_width":1536,"canvas_height":864,"trial_part":"probe2","trial_type":"rdk","trial_index":54,"time_elapsed":47832,"internal_node_id":"0.0-8.0-2.0-1.6","browser_name":"Chrome","browser_type":"88.0","subject":"w906pm7","interaction":"[{\"event\":\"fullscreenenter\",\"trial\":3,\"time\":12037}]","windowWidth":1536,"windowHight":864},{"rt":null,"stimulus":"<p style='color:Green; font-size:150%;'>Corretto</p>","key_press":null,"trial_type":"html-keyboard-response","trial_index":55,"time_elapsed":48337,"internal_node_id":"0.0-8.0-2.0-2.6","browser_name":"Chrome","browser_type":"88.0","subject":"w906pm7","interaction":"[{\"event\":\"fullscreenenter\",\"trial\":3,\"time\":12037}]","windowWidth":1536,"windowHight":864},{"rt":null,"stimulus":"+","key_press":null,"trial_part":"fixation","trial_type":"html-keyboard-response","trial_index":56,"time_elapsed":48852,"internal_node_id":"0.0-8.0-2.0-0.7","browser_name":"Chrome","browser_type":"88.0","subject":"w906pm7","interaction":"[{\"event\":\"fullscreenenter\",\"trial\":3,\"time\":12037}]","windowWidth":1536,"windowHight":864},{"rt":1033.6349999997765,"key_press":37,"correct":true,"choices":[37,39],"correct_choice":37,"trial_duration":5000,"response_ends_trial":true,"number_of_apertures":2,"number_of_dots":[100,100],"number_of_sets":1,"coherent_direction":90,"coherence":[1,0.25],"opposite_coherence":0,"dot_radius":5,"dot_life":-1,"move_distance":0.5,"aperture_width":300,"aperture_height":300,"dot_color":["#ef8b08","#ed3a1c"],"background_color":"black","RDK_type":3,"aperture_type":2,"reinsert_type":2,"frame_rate":16.47491935422764,"frame_rate_array":"[6.189999985508621,15.774999978020787,16.485000029206276,16.990000032819808,16.299999901093543,16.82500005699694,16.764999949373305,16.41500007826835,16.674999962560833,16.8550000526011,16.654999926686287,16.470000031404197,16.734999953769147,16.635000007227063,16.590000013820827,16.810000059194863,16.724999994039536,16.52999990619719,16.725000110454857,16.71999995596707,16.685000038705766,16.70499995816499,16.395000042393804,16.874999972060323,16.77500002551824,16.339999972842634,17.03999994788319,16.395000042393804,16.764999949373305,16.539999982342124,16.725000110454857,16.60999993328005,16.6800000006333,16.629999969154596,16.76999998744577,16.475000069476664,16.949999961070716,16.675000078976154,16.334999934770167,16.8550000526011,16.509999986737967,16.650000005029142,16.739999991841614,16.82499994058162,16.46499999333173,16.78499998524785,16.620000009424984,16.66500000283122,16.62500004749745,16.694999998435378,16.91999996546656,16.330000013113022,16.810000059194863,16.52999990619719,16.76000002771616,16.500000027008355,16.730000032112002,16.884999931789935,16.45500003360212,16.66500000283122,16.709999996237457,16.47999999113381]","number_of_frames":62,"aperture_center_x":[384,1152],"aperture_center_y":[377,377],"fixation_cross":false,"fixation_cross_width":20,"fixation_cross_height":20,"fixation_cross_color":"black","fixation_cross_thickness":1,"border":false,"border_thickness":1,"border_color":1,"canvas_width":1536,"canvas_height":864,"trial_part":"probe2","trial_type":"rdk","trial_index":57,"time_elapsed":49887,"internal_node_id":"0.0-8.0-2.0-1.7","browser_name":"Chrome","browser_type":"88.0","subject":"w906pm7","interaction":"[{\"event\":\"fullscreenenter\",\"trial\":3,\"time\":12037}]","windowWidth":1536,"windowHight":864},{"rt":null,"stimulus":"<p style='color:Green; font-size:150%;'>Corretto</p>","key_press":null,"trial_type":"html-keyboard-response","trial_index":58,"time_elapsed":50398,"internal_node_id":"0.0-8.0-2.0-2.7","browser_name":"Chrome","browser_type":"88.0","subject":"w906pm7","interaction":"[{\"event\":\"fullscreenenter\",\"trial\":3,\"time\":12037}]","windowWidth":1536,"windowHight":864},{"rt":null,"stimulus":"+","key_press":null,"trial_part":"fixation","trial_type":"html-keyboard-response","trial_index":59,"time_elapsed":50914,"internal_node_id":"0.0-8.0-2.0-0.8","browser_name":"Chrome","browser_type":"88.0","subject":"w906pm7","interaction":"[{\"event\":\"fullscreenenter\",\"trial\":3,\"time\":12037}]","windowWidth":1536,"windowHight":864},{"rt":865.4899999964982,"key_press":39,"correct":true,"choices":[37,39],"correct_choice":39,"trial_duration":5000,"response_ends_trial":true,"number_of_apertures":2,"number_of_dots":[100,200],"number_of_sets":1,"coherent_direction":90,"coherence":[0.5,0.75],"opposite_coherence":0,"dot_radius":5,"dot_life":-1,"move_distance":0.5,"aperture_width":300,"aperture_height":300,"dot_color":["white","#f2ce00"],"background_color":"black","RDK_type":3,"aperture_type":2,"reinsert_type":2,"frame_rate":16.54576923017605,"frame_rate_array":"[10.209999978542328,16.5049999486655,16.850000014528632,16.430000076070428,16.684999922290444,16.6800000006333,16.805000021122396,16.54500002041459,16.644999966956675,16.530000022612512,16.84000005479902,16.724999994039536,16.549999942071736,16.650000005029142,16.77500002551824,16.594999935477972,16.60000008996576,16.714999917894602,16.630000085569918,16.869999933987856,16.444999957457185,16.57500001601875,16.650000005029142,16.820000018924475,16.730000032112002,16.474999953061342,16.790000023320317,16.605000011622906,16.709999996237457,16.670000040903687,16.629999969154596,16.694999998435378,16.539999982342124,16.77500002551824,16.899999929592013,16.29500009585172,16.56999997794628,16.88000001013279,16.629999969154596,16.900000046007335,16.51999994646758,16.620000009424984,16.734999953769147,16.395000042393804,16.730000032112002,16.76999998744577,16.56000001821667,16.814999980852008,16.79999998304993,16.324999975040555,16.73500007018447,17.254999955184758]","number_of_frames":52,"aperture_center_x":[384,1152],"aperture_center_y":[377,377],"fixation_cross":false,"fixation_cross_width":20,"fixation_cross_height":20,"fixation_cross_color":"black","fixation_cross_thickness":1,"border":false,"border_thickness":1,"border_color":1,"canvas_width":1536,"canvas_height":864,"trial_part":"probe2","trial_type":"rdk","trial_index":60,"time_elapsed":51780,"internal_node_id":"0.0-8.0-2.0-1.8","browser_name":"Chrome","browser_type":"88.0","subject":"w906pm7","interaction":"[{\"event\":\"fullscreenenter\",\"trial\":3,\"time\":12037}]","windowWidth":1536,"windowHight":864},{"rt":null,"stimulus":"<p style='color:Green; font-size:150%;'>Corretto</p>","key_press":null,"trial_type":"html-keyboard-response","trial_index":61,"time_elapsed":52288,"internal_node_id":"0.0-8.0-2.0-2.8","browser_name":"Chrome","browser_type":"88.0","subject":"w906pm7","interaction":"[{\"event\":\"fullscreenenter\",\"trial\":3,\"time\":12037}]","windowWidth":1536,"windowHight":864},{"rt":null,"stimulus":"+","key_press":null,"trial_part":"fixation","trial_type":"html-keyboard-response","trial_index":62,"time_elapsed":52790,"internal_node_id":"0.0-8.0-2.0-0.9","browser_name":"Chrome","browser_type":"88.0","subject":"w906pm7","interaction":"[{\"event\":\"fullscreenenter\",\"trial\":3,\"time\":12037}]","windowWidth":1536,"windowHight":864},{"rt":660.6449999380857,"key_press":37,"correct":true,"choices":[37,39],"correct_choice":37,"trial_duration":5000,"response_ends_trial":true,"number_of_apertures":2,"number_of_dots":[200,100],"number_of_sets":1,"coherent_direction":90,"coherence":[1,0.75],"opposite_coherence":0,"dot_radius":5,"dot_life":-1,"move_distance":0.5,"aperture_width":300,"aperture_height":300,"dot_color":["white","white"],"background_color":"black","RDK_type":3,"aperture_type":2,"reinsert_type":2,"frame_rate":16.695897438181326,"frame_rate_array":"[31.135000055655837,6.159999989904463,14.229999971576035,16.47999999113381,16.88000001013279,16.42500003799796,16.605000011622906,16.414999961853027,16.950000077486038,16.564999939873815,16.98499999474734,16.70499995816499,16.155000077560544,16.709999996237457,16.78499998524785,16.829999978654087,16.375000006519258,16.76000002771616,16.89500000793487,16.39499992597848,16.76000002771616,16.57500001601875,16.900000046007335,16.60999993328005,16.485000029206276,16.54500002041459,17.155000008642673,16.47999999113381,16.470000031404197,16.644999966956675,16.659999964758754,16.814999980852008,16.724999994039536,16.555000096559525,16.389999887906015,16.81500009726733,16.6800000006333,16.859999974258244,16.57500001601875]","number_of_frames":39,"aperture_center_x":[384,1152],"aperture_center_y":[377,377],"fixation_cross":false,"fixation_cross_width":20,"fixation_cross_height":20,"fixation_cross_color":"black","fixation_cross_thickness":1,"border":false,"border_thickness":1,"border_color":1,"canvas_width":1536,"canvas_height":864,"trial_part":"probe2","trial_type":"rdk","trial_index":63,"time_elapsed":53452,"internal_node_id":"0.0-8.0-2.0-1.9","browser_name":"Chrome","browser_type":"88.0","subject":"w906pm7","interaction":"[{\"event\":\"fullscreenenter\",\"trial\":3,\"time\":12037}]","windowWidth":1536,"windowHight":864},{"rt":null,"stimulus":"<p style='color:Green; font-size:150%;'>Corretto</p>","key_press":null,"trial_type":"html-keyboard-response","trial_index":64,"time_elapsed":53963,"internal_node_id":"0.0-8.0-2.0-2.9","browser_name":"Chrome","browser_type":"88.0","subject":"w906pm7","interaction":"[{\"event\":\"fullscreenenter\",\"trial\":3,\"time\":12037}]","windowWidth":1536,"windowHight":864},{"rt":654.8200000543147,"stimulus":"<div>\n  <p style=\"font-size:110%;\"> <b>Complimenti!</b></p> \n  <br>\n  Hai completato con successo questa parte di prova. \n  <br><br><br/>\n  <font style=\"font-size:110%;\"> Premi la <b>BARRA SPAZIATRICE</b> per accedere al compito vero e proprio </font>\n  </div>","key_press":32,"trial_type":"html-keyboard-response","trial_index":65,"time_elapsed":54619,"internal_node_id":"0.0-9.0","browser_name":"Chrome","browser_type":"88.0","subject":"w906pm7","interaction":"[{\"event\":\"fullscreenenter\",\"trial\":3,\"time\":12037}]","windowWidth":1536,"windowHight":864},{"rt":781.0349999926984,"stimulus":"<div style = \"padding-left: 100px;padding-right: 100px;\"> \n  <font size=110%;>Calibrazione & Validazione </font><br/>\n  <br>\n  Prima di procedere con il compito finale, abbiamo bisogno di accendere e tarare la webcam. <br/>\n  Ci sono due parti in questo processo: 1. Calibrazione 2. Validazione\n  <br><br/>\n  Durante la <b>calibrazione</b> vedrai una serie di punti come questo <span class=\"moveimage2\" id=\"calibration_dot_instruction\"></span> apparire sullo schermo, ogni 3 secondi.<br/>\n  Il tuo compito sarà semplicemente quello di fissare ogni punto, finchè questo non sparirà. <br>\n  Successivamente, dovrai dirigere velocemente lo sguardo sul punto successivo.\n  <br><br/>\n  La <b>validazione</b> è come la calibrazione. Dovrai semplicemente fissare i punti finchè non diventano <b><font color='green'>verdi</font></b> e spariscono.\n  Durante la validazione, il punto potrebbe diventare <b><font color='yellow'>giallo</font></b>, indicando che non sembra tu stia fissando direttamente il punto. Prova a far in modo che ciò non accada! \n  <br><br/>\n  <p style=\"font-size:110%;\">Quando sei pronto, premi la <b>BARRA SPAZIATRICE</b> per continuare.</p>                \n  </div>","key_press":32,"trial_type":"html-keyboard-response","trial_index":66,"time_elapsed":55400,"internal_node_id":"0.0-10.0","browser_name":"Chrome","browser_type":"88.0","subject":"w906pm7","interaction":"[{\"event\":\"fullscreenenter\",\"trial\":3,\"time\":12037}]","windowWidth":1536,"windowHight":864},{"rt":673.6149999778718,"stimulus":"<div style=\"padding-left: 100px;padding-right: 100px;\">\n  <font size=110%;>Calibrazione & Validazione </font>\n  <br><br/>\n  Quando la calibrazione inizierà, vedrai un video con il tuo viso in alto a sinistra dello schermo, come di seguito:\n  <br><br/>\n  <img height=\"10%\" width=\"15%\" src=\"../img/instruct0.png\">\n  <br><br/>\n  Prova a tenere il tuo viso dentro il riquadro. Il riquadro diventerà <b><font color='green'>verde</font></b> quando troverai una buona posizione. Il video apparirà solo durante la calibrazione. <br/>\n  <font font color = 'red';> <b>NOTA</b>: Se la validazione non andrà a buon fine, avrai l'opportunità di ripeterla fino ad un massimo di 3 volte. Dopodiché, l'esperimento terminerà. \n  </font>\n  <br><br/>\n  <font style=\"font-size:110%;\">Quando sei pronto, premi la <b>BARRA SPAZIATRICE</b> per continuare.</font>                \n  </div>","key_press":32,"trial_type":"html-keyboard-response","trial_index":67,"time_elapsed":56588,"internal_node_id":"0.0-11.0","browser_name":"Chrome","browser_type":"88.0","subject":"w906pm7","interaction":"[{\"event\":\"fullscreenenter\",\"trial\":3,\"time\":12037}]","windowWidth":1536,"windowHight":864},{"rt":535.7599999988452,"stimulus":"<div>   \n      <p>Questi sono alcuni suggerimenti <b style=\"color:#b10508;\">IMPORTANTI</b> che sono generalmente utili a passare il compito di calibrazione e validazione:</p>\n      <br>\n      <img width=\"90%\" src=\"../img/instruct1.png\">\n      <br><br>\n      <div style=\"text-align-last:left\">\n      Oltre ai consigli in figura: <br/>\n      (1). Usa gli occhi per guardare sullo schermo e prova a non muovere la testa. <br>\n      (2). Prova a tenere la luce difronte e te anziché alla tua schiena in modo che la webcam <br> \n           &nbsp;&nbsp;&nbsp;&nbsp;&nbsp; possa vedere la tua faccia chiaramente. Evita di sederti con la finestra alle tue spalle. <br>\n      (3). Dopo aver fatto questi aggiustamenti, controlla nuovamente che il tuo viso rientri nel riquadro <br> \n          &nbsp;&nbsp;&nbsp;&nbsp;&nbsp; sul video e che il riquadro sia verde. <br></div>\n      <br>\n    \n      Quando sei pronto, premi la <b>BARRA SPAZIATRICE</b> per iniziare la calibrazione.","key_press":32,"trial_type":"html-keyboard-response","trial_index":68,"time_elapsed":57639,"internal_node_id":"0.0-12.0-0.0","browser_name":"Chrome","browser_type":"88.0","subject":"w906pm7","interaction":"[{\"event\":\"fullscreenenter\",\"trial\":3,\"time\":12037}]","windowWidth":1536,"windowHight":864},{"validationPoints":"[{\"x\":\"35%\",\"y\":\"35%\",\"valid\":true,\"hitRatio\":0.9883720930232558,\"hitCount\":85,\"totalcount\":86},{\"x\":\"50%\",\"y\":\"80%\",\"valid\":true,\"hitRatio\":1,\"hitCount\":86,\"totalcount\":86},{\"x\":\"80%\",\"y\":\"50%\",\"valid\":true,\"hitRatio\":0.8390804597701149,\"hitCount\":73,\"totalcount\":87},{\"x\":\"80%\",\"y\":\"80%\",\"valid\":false,\"hitRatio\":0.6022727272727273,\"hitCount\":53,\"totalcount\":88},{\"x\":\"80%\",\"y\":\"20%\",\"valid\":false,\"hitRatio\":0.06818181818181818,\"hitCount\":6,\"totalcount\":88},{\"x\":\"35%\",\"y\":\"65%\",\"valid\":true,\"hitRatio\":1,\"hitCount\":86,\"totalcount\":86},{\"x\":\"20%\",\"y\":\"80%\",\"valid\":true,\"hitRatio\":1,\"hitCount\":87,\"totalcount\":87},{\"x\":\"20%\",\"y\":\"50%\",\"valid\":true,\"hitRatio\":0.9540229885057471,\"hitCount\":83,\"totalcount\":87},{\"x\":\"65%\",\"y\":\"65%\",\"valid\":true,\"hitRatio\":0.8372093023255814,\"hitCount\":72,\"totalcount\":86},{\"x\":\"20%\",\"y\":\"20%\",\"valid\":true,\"hitRatio\":1,\"hitCount\":86,\"totalcount\":86},{\"x\":\"65%\",\"y\":\"35%\",\"valid\":true,\"hitRatio\":0.9885057471264368,\"hitCount\":86,\"totalcount\":87},{\"x\":\"50%\",\"y\":\"50%\",\"valid\":true,\"hitRatio\":1,\"hitCount\":88,\"totalcount\":88}]","accuracy":0.8333333333333334,"validationnHistory":[{"x":798,"y":350,"cx":513,"cy":277,"dist":285,"count":"2"},{"x":565,"y":496,"cx":513,"cy":277,"dist":52,"count":"2"},{"x":570,"y":375,"cx":513,"cy":277,"dist":57,"count":"2"},{"x":544,"y":314,"cx":513,"cy":277,"dist":31,"count":"2"},{"x":523,"y":311,"cx":513,"cy":277,"dist":10,"count":"2"},{"x":474,"y":355,"cx":513,"cy":277,"dist":39,"count":"2"},{"x":424,"y":321,"cx":513,"cy":277,"dist":89,"count":"2"},{"x":499,"y":308,"cx":513,"cy":277,"dist":14,"count":"2"},{"x":548,"y":323,"cx":513,"cy":277,"dist":35,"count":"2"},{"x":548,"y":323,"cx":513,"cy":277,"dist":35,"count":"2"},{"x":434,"y":260,"cx":513,"cy":277,"dist":79,"count":"2"},{"x":476,"y":227,"cx":513,"cy":277,"dist":37,"count":"2"},{"x":508,"y":180,"cx":513,"cy":277,"dist":5,"count":"2"},{"x":511,"y":247,"cx":513,"cy":277,"dist":2,"count":"2"},{"x":567,"y":289,"cx":513,"cy":277,"dist":54,"count":"2"},{"x":578,"y":233,"cx":513,"cy":277,"dist":65,"count":"2"},{"x":573,"y":220,"cx":513,"cy":277,"dist":60,"count":"2"},{"x":589,"y":241,"cx":513,"cy":277,"dist":76,"count":"2"},{"x":595,"y":242,"cx":513,"cy":277,"dist":82,"count":"2"},{"x":482,"y":252,"cx":513,"cy":277,"dist":31,"count":"2"},{"x":500,"y":294,"cx":513,"cy":277,"dist":13,"count":"1"},{"x":559,"y":221,"cx":513,"cy":277,"dist":46,"count":"1"},{"x":559,"y":221,"cx":513,"cy":277,"dist":46,"count":"1"},{"x":586,"y":264,"cx":513,"cy":277,"dist":73,"count":"1"},{"x":651,"y":211,"cx":513,"cy":277,"dist":138,"count":"1"},{"x":505,"y":242,"cx":513,"cy":277,"dist":8,"count":"1"},{"x":483,"y":382,"cx":513,"cy":277,"dist":30,"count":"1"},{"x":483,"y":382,"cx":513,"cy":277,"dist":30,"count":"1"},{"x":548,"y":340,"cx":513,"cy":277,"dist":35,"count":"1"},{"x":499,"y":364,"cx":513,"cy":277,"dist":14,"count":"1"},{"x":537,"y":354,"cx":513,"cy":277,"dist":24,"count":"1"},{"x":558,"y":258,"cx":513,"cy":277,"dist":45,"count":"1"},{"x":557,"y":339,"cx":513,"cy":277,"dist":44,"count":"1"},{"x":557,"y":339,"cx":513,"cy":277,"dist":44,"count":"1"},{"x":542,"y":292,"cx":513,"cy":277,"dist":29,"count":"1"},{"x":510,"y":336,"cx":513,"cy":277,"dist":3,"count":"1"},{"x":568,"y":148,"cx":513,"cy":277,"dist":55,"count":"1"},{"x":519,"y":300,"cx":513,"cy":277,"dist":6,"count":"1"},{"x":519,"y":300,"cx":513,"cy":277,"dist":6,"count":"1"},{"x":523,"y":337,"cx":743,"cy":666,"dist":220,"count":"2"},{"x":560,"y":245,"cx":743,"cy":666,"dist":183,"count":"2"},{"x":515,"y":272,"cx":743,"cy":666,"dist":228,"count":"2"},{"x":477,"y":262,"cx":743,"cy":666,"dist":266,"count":"2"},{"x":557,"y":312,"cx":743,"cy":666,"dist":186,"count":"2"},{"x":677,"y":406,"cx":743,"cy":666,"dist":66,"count":"2"},{"x":680,"y":544,"cx":743,"cy":666,"dist":63,"count":"2"},{"x":727,"y":632,"cx":743,"cy":666,"dist":16,"count":"2"},{"x":703,"y":752,"cx":743,"cy":666,"dist":40,"count":"2"},{"x":791,"y":602,"cx":743,"cy":666,"dist":48,"count":"2"},{"x":700,"y":575,"cx":743,"cy":666,"dist":43,"count":"2"},{"x":733,"y":668,"cx":743,"cy":666,"dist":10,"count":"2"},{"x":676,"y":765,"cx":743,"cy":666,"dist":67,"count":"2"},{"x":707,"y":753,"cx":743,"cy":666,"dist":36,"count":"2"},{"x":747,"y":669,"cx":743,"cy":666,"dist":4,"count":"2"},{"x":716,"y":656,"cx":743,"cy":666,"dist":27,"count":"2"},{"x":728,"y":534,"cx":743,"cy":666,"dist":15,"count":"2"},{"x":680,"y":563,"cx":743,"cy":666,"dist":63,"count":"2"},{"x":793,"y":609,"cx":743,"cy":666,"dist":50,"count":"2"},{"x":793,"y":609,"cx":743,"cy":666,"dist":50,"count":"2"},{"x":768,"y":559,"cx":743,"cy":666,"dist":25,"count":"1"},{"x":755,"y":557,"cx":743,"cy":666,"dist":12,"count":"1"},{"x":674,"y":566,"cx":743,"cy":666,"dist":69,"count":"1"},{"x":731,"y":622,"cx":743,"cy":666,"dist":12,"count":"1"},{"x":731,"y":622,"cx":743,"cy":666,"dist":12,"count":"1"},{"x":661,"y":558,"cx":743,"cy":666,"dist":82,"count":"1"},{"x":694,"y":507,"cx":743,"cy":666,"dist":49,"count":"1"},{"x":702,"y":600,"cx":743,"cy":666,"dist":41,"count":"1"},{"x":704,"y":594,"cx":743,"cy":666,"dist":39,"count":"1"},{"x":722,"y":595,"cx":743,"cy":666,"dist":21,"count":"1"},{"x":685,"y":581,"cx":743,"cy":666,"dist":58,"count":"1"},{"x":685,"y":581,"cx":743,"cy":666,"dist":58,"count":"1"},{"x":752,"y":527,"cx":743,"cy":666,"dist":9,"count":"1"},{"x":691,"y":673,"cx":743,"cy":666,"dist":52,"count":"1"},{"x":775,"y":561,"cx":743,"cy":666,"dist":32,"count":"1"},{"x":685,"y":601,"cx":743,"cy":666,"dist":58,"count":"1"},{"x":685,"y":601,"cx":743,"cy":666,"dist":58,"count":"1"},{"x":802,"y":681,"cx":743,"cy":666,"dist":59,"count":"1"},{"x":669,"y":621,"cx":743,"cy":666,"dist":74,"count":"1"},{"x":678,"y":625,"cx":1204,"cy":407,"dist":526,"count":"2"},{"x":697,"y":614,"cx":1204,"cy":407,"dist":507,"count":"2"},{"x":681,"y":690,"cx":1204,"cy":407,"dist":523,"count":"2"},{"x":712,"y":507,"cx":1204,"cy":407,"dist":492,"count":"2"},{"x":717,"y":626,"cx":1204,"cy":407,"dist":487,"count":"2"},{"x":955,"y":218,"cx":1204,"cy":407,"dist":249,"count":"2"},{"x":996,"y":295,"cx":1204,"cy":407,"dist":208,"count":"2"},{"x":1088,"y":274,"cx":1204,"cy":407,"dist":116,"count":"2"},{"x":1088,"y":274,"cx":1204,"cy":407,"dist":116,"count":"2"},{"x":1060,"y":290,"cx":1204,"cy":407,"dist":144,"count":"2"},{"x":1118,"y":362,"cx":1204,"cy":407,"dist":86,"count":"2"},{"x":1118,"y":362,"cx":1204,"cy":407,"dist":86,"count":"2"},{"x":1131,"y":422,"cx":1204,"cy":407,"dist":73,"count":"2"},{"x":1127,"y":276,"cx":1204,"cy":407,"dist":77,"count":"2"},{"x":1140,"y":445,"cx":1204,"cy":407,"dist":64,"count":"2"},{"x":1140,"y":445,"cx":1204,"cy":407,"dist":64,"count":"2"},{"x":1143,"y":343,"cx":1204,"cy":407,"dist":61,"count":"2"},{"x":1075,"y":223,"cx":1204,"cy":407,"dist":129,"count":"2"},{"x":1072,"y":387,"cx":1204,"cy":407,"dist":132,"count":"2"},{"x":1068,"y":383,"cx":1204,"cy":407,"dist":136,"count":"2"},{"x":1151,"y":289,"cx":1204,"cy":407,"dist":53,"count":"1"},{"x":1151,"y":289,"cx":1204,"cy":407,"dist":53,"count":"1"},{"x":1132,"y":317,"cx":1204,"cy":407,"dist":72,"count":"1"},{"x":1132,"y":317,"cx":1204,"cy":407,"dist":72,"count":"1"},{"x":1209,"y":227,"cx":1204,"cy":407,"dist":5,"count":"1"},{"x":1205,"y":342,"cx":1204,"cy":407,"dist":1,"count":"1"},{"x":1187,"y":293,"cx":1204,"cy":407,"dist":17,"count":"1"},{"x":1187,"y":293,"cx":1204,"cy":407,"dist":17,"count":"1"},{"x":1109,"y":242,"cx":1204,"cy":407,"dist":95,"count":"1"},{"x":1158,"y":318,"cx":1204,"cy":407,"dist":46,"count":"1"},{"x":1203,"y":400,"cx":1204,"cy":407,"dist":1,"count":"1"},{"x":1063,"y":257,"cx":1204,"cy":407,"dist":141,"count":"1"},{"x":1063,"y":257,"cx":1204,"cy":407,"dist":141,"count":"1"},{"x":1061,"y":326,"cx":1204,"cy":407,"dist":143,"count":"1"},{"x":1206,"y":377,"cx":1204,"cy":407,"dist":2,"count":"1"},{"x":1089,"y":328,"cx":1204,"cy":407,"dist":115,"count":"1"},{"x":1210,"y":283,"cx":1204,"cy":407,"dist":6,"count":"1"},{"x":1196,"y":258,"cx":1204,"cy":407,"dist":8,"count":"1"},{"x":1088,"y":312,"cx":1204,"cy":407,"dist":116,"count":"1"},{"x":1151,"y":302,"cx":1204,"cy":666,"dist":53,"count":"2"},{"x":1088,"y":278,"cx":1204,"cy":666,"dist":116,"count":"2"},{"x":1088,"y":278,"cx":1204,"cy":666,"dist":116,"count":"2"},{"x":1209,"y":255,"cx":1204,"cy":666,"dist":5,"count":"2"},{"x":1181,"y":299,"cx":1204,"cy":666,"dist":23,"count":"2"},{"x":1161,"y":425,"cx":1204,"cy":666,"dist":43,"count":"2"},{"x":1060,"y":471,"cx":1204,"cy":666,"dist":144,"count":"2"},{"x":1057,"y":545,"cx":1204,"cy":666,"dist":147,"count":"2"},{"x":980,"y":493,"cx":1204,"cy":666,"dist":224,"count":"2"},{"x":1021,"y":400,"cx":1204,"cy":666,"dist":183,"count":"2"},{"x":1137,"y":473,"cx":1204,"cy":666,"dist":67,"count":"2"},{"x":1132,"y":445,"cx":1204,"cy":666,"dist":72,"count":"2"},{"x":1161,"y":474,"cx":1204,"cy":666,"dist":43,"count":"2"},{"x":1161,"y":474,"cx":1204,"cy":666,"dist":43,"count":"2"},{"x":1139,"y":580,"cx":1204,"cy":666,"dist":65,"count":"2"},{"x":1065,"y":368,"cx":1204,"cy":666,"dist":139,"count":"2"},{"x":1143,"y":437,"cx":1204,"cy":666,"dist":61,"count":"2"},{"x":1026,"y":536,"cx":1204,"cy":666,"dist":178,"count":"2"},{"x":1111,"y":432,"cx":1204,"cy":666,"dist":93,"count":"2"},{"x":1044,"y":492,"cx":1204,"cy":666,"dist":160,"count":"2"},{"x":1080,"y":467,"cx":1204,"cy":666,"dist":124,"count":"1"},{"x":1047,"y":573,"cx":1204,"cy":666,"dist":157,"count":"1"},{"x":1055,"y":378,"cx":1204,"cy":666,"dist":149,"count":"1"},{"x":1045,"y":504,"cx":1204,"cy":666,"dist":159,"count":"1"},{"x":1122,"y":581,"cx":1204,"cy":666,"dist":82,"count":"1"},{"x":1122,"y":581,"cx":1204,"cy":666,"dist":82,"count":"1"},{"x":1163,"y":510,"cx":1204,"cy":666,"dist":41,"count":"1"},{"x":1138,"y":568,"cx":1204,"cy":666,"dist":66,"count":"1"},{"x":1020,"y":527,"cx":1204,"cy":666,"dist":184,"count":"1"},{"x":1096,"y":431,"cx":1204,"cy":666,"dist":108,"count":"1"},{"x":1116,"y":482,"cx":1204,"cy":666,"dist":88,"count":"1"},{"x":1116,"y":482,"cx":1204,"cy":666,"dist":88,"count":"1"},{"x":1075,"y":457,"cx":1204,"cy":666,"dist":129,"count":"1"},{"x":1147,"y":588,"cx":1204,"cy":666,"dist":57,"count":"1"},{"x":1116,"y":536,"cx":1204,"cy":666,"dist":88,"count":"1"},{"x":1121,"y":522,"cx":1204,"cy":666,"dist":83,"count":"1"},{"x":1114,"y":539,"cx":1204,"cy":666,"dist":90,"count":"1"},{"x":1057,"y":500,"cx":1204,"cy":666,"dist":147,"count":"1"},{"x":1050,"y":473,"cx":1204,"cy":666,"dist":154,"count":"1"},{"x":1020,"y":439,"cx":1204,"cy":148,"dist":184,"count":"2"},{"x":1075,"y":473,"cx":1204,"cy":148,"dist":129,"count":"2"},{"x":1126,"y":435,"cx":1204,"cy":148,"dist":78,"count":"2"},{"x":1051,"y":361,"cx":1204,"cy":148,"dist":153,"count":"2"},{"x":1096,"y":287,"cx":1204,"cy":148,"dist":108,"count":"2"},{"x":1195,"y":196,"cx":1204,"cy":148,"dist":9,"count":"2"},{"x":1140,"y":247,"cx":1204,"cy":148,"dist":64,"count":"2"},{"x":954,"y":209,"cx":1204,"cy":148,"dist":250,"count":"2"},{"x":1047,"y":269,"cx":1204,"cy":148,"dist":157,"count":"2"},{"x":993,"y":224,"cx":1204,"cy":148,"dist":211,"count":"2"},{"x":1057,"y":78,"cx":1204,"cy":148,"dist":147,"count":"2"},{"x":1156,"y":138,"cx":1204,"cy":148,"dist":48,"count":"2"},{"x":1156,"y":138,"cx":1204,"cy":148,"dist":48,"count":"2"},{"x":941,"y":229,"cx":1204,"cy":148,"dist":263,"count":"2"},{"x":1040,"y":95,"cx":1204,"cy":148,"dist":164,"count":"2"},{"x":1065,"y":106,"cx":1204,"cy":148,"dist":139,"count":"2"},{"x":1009,"y":24,"cx":1204,"cy":148,"dist":195,"count":"2"},{"x":963,"y":120,"cx":1204,"cy":148,"dist":241,"count":"2"},{"x":963,"y":120,"cx":1204,"cy":148,"dist":241,"count":"2"},{"x":819,"y":79,"cx":1204,"cy":148,"dist":385,"count":"2"},{"x":915,"y":197,"cx":1204,"cy":148,"dist":289,"count":"1"},{"x":1043,"y":103,"cx":1204,"cy":148,"dist":161,"count":"1"},{"x":1050,"y":146,"cx":1204,"cy":148,"dist":154,"count":"1"},{"x":903,"y":164,"cx":1204,"cy":148,"dist":301,"count":"1"},{"x":903,"y":164,"cx":1204,"cy":148,"dist":301,"count":"1"},{"x":1099,"y":137,"cx":1204,"cy":148,"dist":105,"count":"1"},{"x":869,"y":95,"cx":1204,"cy":148,"dist":335,"count":"1"},{"x":936,"y":31,"cx":1204,"cy":148,"dist":268,"count":"1"},{"x":897,"y":152,"cx":1204,"cy":148,"dist":307,"count":"1"},{"x":897,"y":152,"cx":1204,"cy":148,"dist":307,"count":"1"},{"x":984,"y":30,"cx":1204,"cy":148,"dist":220,"count":"1"},{"x":1007,"y":-7,"cx":1204,"cy":148,"dist":197,"count":"1"},{"x":972,"y":101,"cx":1204,"cy":148,"dist":232,"count":"1"},{"x":989,"y":38,"cx":1204,"cy":148,"dist":215,"count":"1"},{"x":854,"y":24,"cx":1204,"cy":148,"dist":350,"count":"1"},{"x":854,"y":24,"cx":1204,"cy":148,"dist":350,"count":"1"},{"x":936,"y":204,"cx":1204,"cy":148,"dist":268,"count":"1"},{"x":971,"y":131,"cx":1204,"cy":148,"dist":233,"count":"1"},{"x":978,"y":196,"cx":1204,"cy":148,"dist":226,"count":"1"},{"x":866,"y":59,"cx":513,"cy":537,"dist":353,"count":"2"},{"x":912,"y":32,"cx":513,"cy":537,"dist":399,"count":"2"},{"x":1073,"y":71,"cx":513,"cy":537,"dist":560,"count":"2"},{"x":1001,"y":203,"cx":513,"cy":537,"dist":488,"count":"2"},{"x":1001,"y":203,"cx":513,"cy":537,"dist":488,"count":"2"},{"x":670,"y":331,"cx":513,"cy":537,"dist":157,"count":"2"},{"x":565,"y":460,"cx":513,"cy":537,"dist":52,"count":"2"},{"x":452,"y":458,"cx":513,"cy":537,"dist":61,"count":"2"},{"x":534,"y":473,"cx":513,"cy":537,"dist":21,"count":"2"},{"x":492,"y":448,"cx":513,"cy":537,"dist":21,"count":"2"},{"x":460,"y":484,"cx":513,"cy":537,"dist":53,"count":"2"},{"x":474,"y":535,"cx":513,"cy":537,"dist":39,"count":"2"},{"x":434,"y":556,"cx":513,"cy":537,"dist":79,"count":"2"},{"x":483,"y":505,"cx":513,"cy":537,"dist":30,"count":"2"},{"x":473,"y":633,"cx":513,"cy":537,"dist":40,"count":"2"},{"x":450,"y":506,"cx":513,"cy":537,"dist":63,"count":"2"},{"x":520,"y":574,"cx":513,"cy":537,"dist":7,"count":"2"},{"x":534,"y":594,"cx":513,"cy":537,"dist":21,"count":"2"},{"x":533,"y":514,"cx":513,"cy":537,"dist":20,"count":"2"},{"x":456,"y":469,"cx":513,"cy":537,"dist":57,"count":"2"},{"x":506,"y":533,"cx":513,"cy":537,"dist":7,"count":"1"},{"x":397,"y":542,"cx":513,"cy":537,"dist":116,"count":"1"},{"x":397,"y":542,"cx":513,"cy":537,"dist":116,"count":"1"},{"x":542,"y":590,"cx":513,"cy":537,"dist":29,"count":"1"},{"x":522,"y":526,"cx":513,"cy":537,"dist":9,"count":"1"},{"x":461,"y":485,"cx":513,"cy":537,"dist":52,"count":"1"},{"x":394,"y":486,"cx":513,"cy":537,"dist":119,"count":"1"},{"x":508,"y":425,"cx":513,"cy":537,"dist":5,"count":"1"},{"x":508,"y":425,"cx":513,"cy":537,"dist":5,"count":"1"},{"x":452,"y":581,"cx":513,"cy":537,"dist":61,"count":"1"},{"x":499,"y":478,"cx":513,"cy":537,"dist":14,"count":"1"},{"x":414,"y":541,"cx":513,"cy":537,"dist":99,"count":"1"},{"x":482,"y":513,"cx":513,"cy":537,"dist":31,"count":"1"},{"x":543,"y":482,"cx":513,"cy":537,"dist":30,"count":"1"},{"x":460,"y":514,"cx":513,"cy":537,"dist":53,"count":"1"},{"x":457,"y":500,"cx":513,"cy":537,"dist":56,"count":"1"},{"x":581,"y":469,"cx":513,"cy":537,"dist":68,"count":"1"},{"x":516,"y":546,"cx":513,"cy":537,"dist":3,"count":"1"},{"x":434,"y":664,"cx":513,"cy":537,"dist":79,"count":"1"},{"x":371,"y":550,"cx":282,"cy":666,"dist":89,"count":"2"},{"x":461,"y":540,"cx":282,"cy":666,"dist":179,"count":"2"},{"x":510,"y":501,"cx":282,"cy":666,"dist":228,"count":"2"},{"x":513,"y":459,"cx":282,"cy":666,"dist":231,"count":"2"},{"x":385,"y":521,"cx":282,"cy":666,"dist":103,"count":"2"},{"x":291,"y":593,"cx":282,"cy":666,"dist":9,"count":"2"},{"x":294,"y":573,"cx":282,"cy":666,"dist":12,"count":"2"},{"x":220,"y":698,"cx":282,"cy":666,"dist":62,"count":"2"},{"x":292,"y":499,"cx":282,"cy":666,"dist":10,"count":"2"},{"x":319,"y":674,"cx":282,"cy":666,"dist":37,"count":"2"},{"x":281,"y":582,"cx":282,"cy":666,"dist":1,"count":"2"},{"x":358,"y":590,"cx":282,"cy":666,"dist":76,"count":"2"},{"x":247,"y":623,"cx":282,"cy":666,"dist":35,"count":"2"},{"x":296,"y":661,"cx":282,"cy":666,"dist":14,"count":"2"},{"x":316,"y":642,"cx":282,"cy":666,"dist":34,"count":"2"},{"x":329,"y":591,"cx":282,"cy":666,"dist":47,"count":"2"},{"x":254,"y":710,"cx":282,"cy":666,"dist":28,"count":"2"},{"x":296,"y":687,"cx":282,"cy":666,"dist":14,"count":"2"},{"x":308,"y":577,"cx":282,"cy":666,"dist":26,"count":"2"},{"x":259,"y":679,"cx":282,"cy":666,"dist":23,"count":"2"},{"x":276,"y":682,"cx":282,"cy":666,"dist":6,"count":"1"},{"x":279,"y":685,"cx":282,"cy":666,"dist":3,"count":"1"},{"x":332,"y":590,"cx":282,"cy":666,"dist":50,"count":"1"},{"x":345,"y":537,"cx":282,"cy":666,"dist":63,"count":"1"},{"x":366,"y":538,"cx":282,"cy":666,"dist":84,"count":"1"},{"x":238,"y":609,"cx":282,"cy":666,"dist":44,"count":"1"},{"x":314,"y":691,"cx":282,"cy":666,"dist":32,"count":"1"},{"x":316,"y":694,"cx":282,"cy":666,"dist":34,"count":"1"},{"x":291,"y":622,"cx":282,"cy":666,"dist":9,"count":"1"},{"x":370,"y":612,"cx":282,"cy":666,"dist":88,"count":"1"},{"x":328,"y":703,"cx":282,"cy":666,"dist":46,"count":"1"},{"x":243,"y":713,"cx":282,"cy":666,"dist":39,"count":"1"},{"x":312,"y":641,"cx":282,"cy":666,"dist":30,"count":"1"},{"x":292,"y":689,"cx":282,"cy":666,"dist":10,"count":"1"},{"x":312,"y":659,"cx":282,"cy":666,"dist":30,"count":"1"},{"x":291,"y":635,"cx":282,"cy":666,"dist":9,"count":"1"},{"x":303,"y":614,"cx":282,"cy":666,"dist":21,"count":"1"},{"x":202,"y":739,"cx":282,"cy":666,"dist":80,"count":"1"},{"x":300,"y":657,"cx":282,"cy":666,"dist":18,"count":"1"},{"x":268,"y":762,"cx":282,"cy":407,"dist":14,"count":"2"},{"x":257,"y":532,"cx":282,"cy":407,"dist":25,"count":"2"},{"x":343,"y":582,"cx":282,"cy":407,"dist":61,"count":"2"},{"x":238,"y":602,"cx":282,"cy":407,"dist":44,"count":"2"},{"x":345,"y":593,"cx":282,"cy":407,"dist":63,"count":"2"},{"x":209,"y":528,"cx":282,"cy":407,"dist":73,"count":"2"},{"x":221,"y":488,"cx":282,"cy":407,"dist":61,"count":"2"},{"x":333,"y":430,"cx":282,"cy":407,"dist":51,"count":"2"},{"x":330,"y":438,"cx":282,"cy":407,"dist":48,"count":"2"},{"x":301,"y":477,"cx":282,"cy":407,"dist":19,"count":"2"},{"x":368,"y":413,"cx":282,"cy":407,"dist":86,"count":"2"},{"x":368,"y":413,"cx":282,"cy":407,"dist":86,"count":"2"},{"x":304,"y":448,"cx":282,"cy":407,"dist":22,"count":"2"},{"x":333,"y":441,"cx":282,"cy":407,"dist":51,"count":"2"},{"x":300,"y":375,"cx":282,"cy":407,"dist":18,"count":"2"},{"x":342,"y":464,"cx":282,"cy":407,"dist":60,"count":"2"},{"x":325,"y":440,"cx":282,"cy":407,"dist":43,"count":"2"},{"x":325,"y":440,"cx":282,"cy":407,"dist":43,"count":"2"},{"x":285,"y":491,"cx":282,"cy":407,"dist":3,"count":"2"},{"x":309,"y":440,"cx":282,"cy":407,"dist":27,"count":"2"},{"x":342,"y":432,"cx":282,"cy":407,"dist":60,"count":"1"},{"x":303,"y":426,"cx":282,"cy":407,"dist":21,"count":"1"},{"x":303,"y":426,"cx":282,"cy":407,"dist":21,"count":"1"},{"x":324,"y":448,"cx":282,"cy":407,"dist":42,"count":"1"},{"x":330,"y":410,"cx":282,"cy":407,"dist":48,"count":"1"},{"x":341,"y":422,"cx":282,"cy":407,"dist":59,"count":"1"},{"x":338,"y":367,"cx":282,"cy":407,"dist":56,"count":"1"},{"x":414,"y":381,"cx":282,"cy":407,"dist":132,"count":"1"},{"x":382,"y":394,"cx":282,"cy":407,"dist":100,"count":"1"},{"x":382,"y":394,"cx":282,"cy":407,"dist":100,"count":"1"},{"x":285,"y":395,"cx":282,"cy":407,"dist":3,"count":"1"},{"x":290,"y":428,"cx":282,"cy":407,"dist":8,"count":"1"},{"x":386,"y":428,"cx":282,"cy":407,"dist":104,"count":"1"},{"x":332,"y":354,"cx":282,"cy":407,"dist":50,"count":"1"},{"x":332,"y":354,"cx":282,"cy":407,"dist":50,"count":"1"},{"x":294,"y":394,"cx":282,"cy":407,"dist":12,"count":"1"},{"x":286,"y":449,"cx":282,"cy":407,"dist":4,"count":"1"},{"x":322,"y":381,"cx":282,"cy":407,"dist":40,"count":"1"},{"x":322,"y":378,"cx":282,"cy":407,"dist":40,"count":"1"},{"x":350,"y":456,"cx":973,"cy":537,"dist":623,"count":"2"},{"x":350,"y":456,"cx":973,"cy":537,"dist":623,"count":"2"},{"x":306,"y":462,"cx":973,"cy":537,"dist":667,"count":"2"},{"x":266,"y":440,"cx":973,"cy":537,"dist":707,"count":"2"},{"x":304,"y":458,"cx":973,"cy":537,"dist":669,"count":"2"},{"x":844,"y":351,"cx":973,"cy":537,"dist":129,"count":"2"},{"x":793,"y":584,"cx":973,"cy":537,"dist":180,"count":"2"},{"x":822,"y":513,"cx":973,"cy":537,"dist":151,"count":"2"},{"x":797,"y":561,"cx":973,"cy":537,"dist":176,"count":"2"},{"x":806,"y":499,"cx":973,"cy":537,"dist":167,"count":"2"},{"x":780,"y":535,"cx":973,"cy":537,"dist":193,"count":"2"},{"x":865,"y":518,"cx":973,"cy":537,"dist":108,"count":"2"},{"x":902,"y":532,"cx":973,"cy":537,"dist":71,"count":"2"},{"x":878,"y":469,"cx":973,"cy":537,"dist":95,"count":"2"},{"x":944,"y":493,"cx":973,"cy":537,"dist":29,"count":"2"},{"x":898,"y":427,"cx":973,"cy":537,"dist":75,"count":"2"},{"x":836,"y":405,"cx":973,"cy":537,"dist":137,"count":"2"},{"x":862,"y":464,"cx":973,"cy":537,"dist":111,"count":"2"},{"x":925,"y":535,"cx":973,"cy":537,"dist":48,"count":"2"},{"x":895,"y":538,"cx":973,"cy":537,"dist":78,"count":"2"},{"x":824,"y":513,"cx":973,"cy":537,"dist":149,"count":"1"},{"x":895,"y":576,"cx":973,"cy":537,"dist":78,"count":"1"},{"x":984,"y":460,"cx":973,"cy":537,"dist":11,"count":"1"},{"x":796,"y":481,"cx":973,"cy":537,"dist":177,"count":"1"},{"x":878,"y":479,"cx":973,"cy":537,"dist":95,"count":"1"},{"x":848,"y":482,"cx":973,"cy":537,"dist":125,"count":"1"},{"x":848,"y":482,"cx":973,"cy":537,"dist":125,"count":"1"},{"x":877,"y":389,"cx":973,"cy":537,"dist":96,"count":"1"},{"x":880,"y":482,"cx":973,"cy":537,"dist":93,"count":"1"},{"x":868,"y":461,"cx":973,"cy":537,"dist":105,"count":"1"},{"x":868,"y":461,"cx":973,"cy":537,"dist":105,"count":"1"},{"x":856,"y":499,"cx":973,"cy":537,"dist":117,"count":"1"},{"x":864,"y":488,"cx":973,"cy":537,"dist":109,"count":"1"},{"x":891,"y":473,"cx":973,"cy":537,"dist":82,"count":"1"},{"x":964,"y":525,"cx":973,"cy":537,"dist":9,"count":"1"},{"x":888,"y":521,"cx":973,"cy":537,"dist":85,"count":"1"},{"x":884,"y":445,"cx":973,"cy":537,"dist":89,"count":"1"},{"x":923,"y":433,"cx":973,"cy":537,"dist":50,"count":"1"},{"x":923,"y":433,"cx":973,"cy":537,"dist":50,"count":"1"},{"x":928,"y":523,"cx":282,"cy":148,"dist":646,"count":"2"},{"x":839,"y":430,"cx":282,"cy":148,"dist":557,"count":"2"},{"x":887,"y":401,"cx":282,"cy":148,"dist":605,"count":"2"},{"x":865,"y":461,"cx":282,"cy":148,"dist":583,"count":"2"},{"x":774,"y":415,"cx":282,"cy":148,"dist":492,"count":"2"},{"x":794,"y":432,"cx":282,"cy":148,"dist":512,"count":"2"},{"x":390,"y":301,"cx":282,"cy":148,"dist":108,"count":"2"},{"x":368,"y":268,"cx":282,"cy":148,"dist":86,"count":"2"},{"x":400,"y":230,"cx":282,"cy":148,"dist":118,"count":"2"},{"x":355,"y":99,"cx":282,"cy":148,"dist":73,"count":"2"},{"x":344,"y":103,"cx":282,"cy":148,"dist":62,"count":"2"},{"x":344,"y":103,"cx":282,"cy":148,"dist":62,"count":"2"},{"x":327,"y":125,"cx":282,"cy":148,"dist":45,"count":"2"},{"x":248,"y":72,"cx":282,"cy":148,"dist":34,"count":"2"},{"x":264,"y":92,"cx":282,"cy":148,"dist":18,"count":"2"},{"x":273,"y":81,"cx":282,"cy":148,"dist":9,"count":"2"},{"x":272,"y":171,"cx":282,"cy":148,"dist":10,"count":"2"},{"x":326,"y":181,"cx":282,"cy":148,"dist":44,"count":"2"},{"x":252,"y":85,"cx":282,"cy":148,"dist":30,"count":"2"},{"x":355,"y":37,"cx":282,"cy":148,"dist":73,"count":"2"},{"x":286,"y":124,"cx":282,"cy":148,"dist":4,"count":"1"},{"x":315,"y":85,"cx":282,"cy":148,"dist":33,"count":"1"},{"x":357,"y":101,"cx":282,"cy":148,"dist":75,"count":"1"},{"x":357,"y":101,"cx":282,"cy":148,"dist":75,"count":"1"},{"x":310,"y":145,"cx":282,"cy":148,"dist":28,"count":"1"},{"x":268,"y":182,"cx":282,"cy":148,"dist":14,"count":"1"},{"x":325,"y":139,"cx":282,"cy":148,"dist":43,"count":"1"},{"x":368,"y":85,"cx":282,"cy":148,"dist":86,"count":"1"},{"x":309,"y":105,"cx":282,"cy":148,"dist":27,"count":"1"},{"x":323,"y":120,"cx":282,"cy":148,"dist":41,"count":"1"},{"x":230,"y":174,"cx":282,"cy":148,"dist":52,"count":"1"},{"x":274,"y":179,"cx":282,"cy":148,"dist":8,"count":"1"},{"x":222,"y":195,"cx":282,"cy":148,"dist":60,"count":"1"},{"x":330,"y":124,"cx":282,"cy":148,"dist":48,"count":"1"},{"x":305,"y":106,"cx":282,"cy":148,"dist":23,"count":"1"},{"x":311,"y":155,"cx":282,"cy":148,"dist":29,"count":"1"},{"x":361,"y":138,"cx":282,"cy":148,"dist":79,"count":"1"},{"x":280,"y":129,"cx":282,"cy":148,"dist":2,"count":"1"},{"x":283,"y":136,"cx":282,"cy":148,"dist":1,"count":"1"},{"x":355,"y":182,"cx":973,"cy":277,"dist":618,"count":"2"},{"x":264,"y":160,"cx":973,"cy":277,"dist":709,"count":"2"},{"x":264,"y":160,"cx":973,"cy":277,"dist":709,"count":"2"},{"x":349,"y":177,"cx":973,"cy":277,"dist":624,"count":"2"},{"x":411,"y":31,"cx":973,"cy":277,"dist":562,"count":"2"},{"x":700,"y":195,"cx":973,"cy":277,"dist":273,"count":"2"},{"x":906,"y":205,"cx":973,"cy":277,"dist":67,"count":"2"},{"x":796,"y":230,"cx":973,"cy":277,"dist":177,"count":"2"},{"x":927,"y":247,"cx":973,"cy":277,"dist":46,"count":"2"},{"x":966,"y":257,"cx":973,"cy":277,"dist":7,"count":"2"},{"x":934,"y":180,"cx":973,"cy":277,"dist":39,"count":"2"},{"x":891,"y":262,"cx":973,"cy":277,"dist":82,"count":"2"},{"x":919,"y":223,"cx":973,"cy":277,"dist":54,"count":"2"},{"x":897,"y":211,"cx":973,"cy":277,"dist":76,"count":"2"},{"x":878,"y":275,"cx":973,"cy":277,"dist":95,"count":"2"},{"x":878,"y":275,"cx":973,"cy":277,"dist":95,"count":"2"},{"x":913,"y":340,"cx":973,"cy":277,"dist":60,"count":"2"},{"x":925,"y":188,"cx":973,"cy":277,"dist":48,"count":"2"},{"x":981,"y":222,"cx":973,"cy":277,"dist":8,"count":"2"},{"x":928,"y":259,"cx":973,"cy":277,"dist":45,"count":"2"},{"x":939,"y":220,"cx":973,"cy":277,"dist":34,"count":"1"},{"x":939,"y":220,"cx":973,"cy":277,"dist":34,"count":"1"},{"x":971,"y":293,"cx":973,"cy":277,"dist":2,"count":"1"},{"x":945,"y":262,"cx":973,"cy":277,"dist":28,"count":"1"},{"x":979,"y":273,"cx":973,"cy":277,"dist":6,"count":"1"},{"x":976,"y":262,"cx":973,"cy":277,"dist":3,"count":"1"},{"x":1003,"y":188,"cx":973,"cy":277,"dist":30,"count":"1"},{"x":995,"y":256,"cx":973,"cy":277,"dist":22,"count":"1"},{"x":981,"y":313,"cx":973,"cy":277,"dist":8,"count":"1"},{"x":975,"y":332,"cx":973,"cy":277,"dist":2,"count":"1"},{"x":1007,"y":236,"cx":973,"cy":277,"dist":34,"count":"1"},{"x":942,"y":200,"cx":973,"cy":277,"dist":31,"count":"1"},{"x":942,"y":200,"cx":973,"cy":277,"dist":31,"count":"1"},{"x":890,"y":235,"cx":973,"cy":277,"dist":83,"count":"1"},{"x":956,"y":220,"cx":973,"cy":277,"dist":17,"count":"1"},{"x":966,"y":223,"cx":973,"cy":277,"dist":7,"count":"1"},{"x":952,"y":271,"cx":973,"cy":277,"dist":21,"count":"1"},{"x":952,"y":271,"cx":973,"cy":277,"dist":21,"count":"1"},{"x":1026,"y":111,"cx":973,"cy":277,"dist":53,"count":"1"},{"x":945,"y":206,"cx":743,"cy":407,"dist":202,"count":"2"},{"x":945,"y":206,"cx":743,"cy":407,"dist":202,"count":"2"},{"x":904,"y":329,"cx":743,"cy":407,"dist":161,"count":"2"},{"x":962,"y":314,"cx":743,"cy":407,"dist":219,"count":"2"},{"x":863,"y":359,"cx":743,"cy":407,"dist":120,"count":"2"},{"x":863,"y":359,"cx":743,"cy":407,"dist":120,"count":"2"},{"x":723,"y":366,"cx":743,"cy":407,"dist":20,"count":"2"},{"x":712,"y":290,"cx":743,"cy":407,"dist":31,"count":"2"},{"x":779,"y":382,"cx":743,"cy":407,"dist":36,"count":"2"},{"x":715,"y":326,"cx":743,"cy":407,"dist":28,"count":"2"},{"x":680,"y":361,"cx":743,"cy":407,"dist":63,"count":"2"},{"x":631,"y":351,"cx":743,"cy":407,"dist":112,"count":"2"},{"x":736,"y":388,"cx":743,"cy":407,"dist":7,"count":"2"},{"x":715,"y":408,"cx":743,"cy":407,"dist":28,"count":"2"},{"x":724,"y":332,"cx":743,"cy":407,"dist":19,"count":"2"},{"x":725,"y":324,"cx":743,"cy":407,"dist":18,"count":"2"},{"x":715,"y":401,"cx":743,"cy":407,"dist":28,"count":"2"},{"x":762,"y":354,"cx":743,"cy":407,"dist":19,"count":"2"},{"x":729,"y":357,"cx":743,"cy":407,"dist":14,"count":"2"},{"x":707,"y":356,"cx":743,"cy":407,"dist":36,"count":"2"},{"x":767,"y":330,"cx":743,"cy":407,"dist":24,"count":"1"},{"x":764,"y":353,"cx":743,"cy":407,"dist":21,"count":"1"},{"x":766,"y":347,"cx":743,"cy":407,"dist":23,"count":"1"},{"x":803,"y":347,"cx":743,"cy":407,"dist":60,"count":"1"},{"x":707,"y":295,"cx":743,"cy":407,"dist":36,"count":"1"},{"x":696,"y":347,"cx":743,"cy":407,"dist":47,"count":"1"},{"x":616,"y":352,"cx":743,"cy":407,"dist":127,"count":"1"},{"x":726,"y":357,"cx":743,"cy":407,"dist":17,"count":"1"},{"x":723,"y":408,"cx":743,"cy":407,"dist":20,"count":"1"},{"x":723,"y":408,"cx":743,"cy":407,"dist":20,"count":"1"},{"x":734,"y":278,"cx":743,"cy":407,"dist":9,"count":"1"},{"x":734,"y":278,"cx":743,"cy":407,"dist":9,"count":"1"},{"x":756,"y":388,"cx":743,"cy":407,"dist":13,"count":"1"},{"x":678,"y":437,"cx":743,"cy":407,"dist":65,"count":"1"},{"x":725,"y":387,"cx":743,"cy":407,"dist":18,"count":"1"},{"x":725,"y":387,"cx":743,"cy":407,"dist":18,"count":"1"},{"x":763,"y":368,"cx":743,"cy":407,"dist":20,"count":"1"},{"x":746,"y":323,"cx":743,"cy":407,"dist":3,"count":"1"},{"x":646,"y":358,"cx":743,"cy":407,"dist":97,"count":"1"}],"trial_type":"eye-tracking","trial_index":69,"time_elapsed":153402,"internal_node_id":"0.0-12.0-1.0","Calibration_Result":"SUCCESS","browser_name":"Chrome","browser_type":"88.0","subject":"w906pm7","interaction":"[{\"event\":\"fullscreenenter\",\"trial\":3,\"time\":12037}]","windowWidth":1536,"windowHight":864},{"rt":1715.9199999878183,"stimulus":"\n  <div> \n  <p>Hai completato con SUCCESSO la fase di Validazione e Calibrazione!</p>\n  <br>\n  Quando sei pronto, premi la <b>BARRA SPAZIATRICE</b> per iniziare il compito.\n  \